Subj_idx,Stimulus,Response,Confidence,RT_dec,RT_conf,Difficulty,Accuracy,Trial_in_block
Ak1804,1,0,1,1.344,1.515,1,0,1
Ak1804,1,1,4,2.067,1.975,2,1,2
Ak1804,0,0,4,1.217,0.959,2,1,3
Ak1804,1,1,2,1.427,0.791,1,1,4
Ak1804,1,1,4,0.942,0.94,1,1,5
Ak1804,0,0,4,1.023,0.503,1,1,6
Ak1804,0,0,3,0.924,0.967,1,1,7
Ak1804,0,0,4,1.014,0.928,1,1,8
Ak1804,1,0,3,1.014,0.512,1,0,9
Ak1804,1,1,4,1.297,0.698,2,1,10
Ak1804,1,1,4,0.545,0.651,1,1,11
Ak1804,0,0,2,1.081,1.117,1,1,12
Ak1804,1,1,2,1.774,0.432,2,1,13
Ak1804,0,0,2,1.096,0.53,1,1,14
Ak1804,0,0,2,1.567,0.671,2,1,15
Ak1804,1,1,4,1.134,0.472,2,1,16
Ak1804,1,1,2,1.284,1.001,2,1,17
Ak1804,1,1,4,1.094,0.617,2,1,18
Ak1804,0,0,3,0.991,0.386,1,1,19
Ak1804,1,1,3,0.994,0.903,1,1,20
Ak1804,1,1,3,0.93,0.435,1,1,21
Ak1804,0,0,4,0.761,0.395,2,1,22
Ak1804,0,0,3,1.307,1.435,1,1,23
Ak1804,1,NaN,2,NaN,0.79,2,0,24
Ak1804,0,0,2,0.878,1.131,2,1,25
Ak1804,0,0,4,2,0.429,2,1,26
Ak1804,0,0,2,1.124,0.652,1,1,27
Ak1804,0,0,3,0.928,0.55,2,1,28
Ak1804,1,1,3,1.717,1.09,1,1,29
Ak1804,0,0,3,1.45,0.406,2,1,30
Ak1804,1,1,3,0.957,0.903,1,1,31
Ak1804,1,1,4,1.308,0.535,2,1,32
Ak1804,0,0,2,0.817,0.39,2,1,33
Ak1804,0,0,2,1.01,0.415,2,1,34
Ak1804,0,0,3,1.301,1.245,1,1,35
Ak1804,1,1,3,0.551,0.364,2,1,36
Ak1804,1,1,4,1.725,2.421,2,1,1
Ak1804,0,0,4,1.011,0.855,2,1,2
Ak1804,1,1,4,1.164,0.528,2,1,3
Ak1804,1,1,2,1.184,1.605,1,1,4
Ak1804,0,1,2,1.258,0.955,2,0,5
Ak1804,0,0,2,1.134,0.739,2,1,6
Ak1804,0,0,2,1.017,1.324,1,1,7
Ak1804,0,0,3,1.064,1.068,1,1,8
Ak1804,1,1,4,1.134,1.412,1,1,9
Ak1804,0,0,4,0.778,0.997,1,1,10
Ak1804,0,0,4,0.992,1.281,1,1,11
Ak1804,0,0,2,0.984,0.858,1,1,12
Ak1804,0,0,4,0.947,0.415,2,1,13
Ak1804,1,1,3,1.124,0.893,1,1,14
Ak1804,0,0,3,0.977,0.598,2,1,15
Ak1804,0,0,3,0.734,0.505,2,1,16
Ak1804,1,0,3,1.5,0.557,2,0,17
Ak1804,1,1,4,1.262,0.867,1,1,18
Ak1804,1,0,4,1.861,0.637,2,0,19
Ak1804,1,1,4,1.18,0.674,2,1,20
Ak1804,0,1,4,2.184,0.599,1,0,21
Ak1804,1,1,4,0.464,0.651,1,1,22
Ak1804,0,0,2,1.064,1.745,1,1,23
Ak1804,1,0,4,1.034,0.554,2,0,24
Ak1804,1,1,2,1.398,1.676,1,1,25
Ak1804,1,1,3,1.117,0.813,1,1,26
Ak1804,1,1,2,1.13,1.308,1,1,27
Ak1804,1,1,4,1.914,0.721,2,1,28
Ak1804,1,0,4,1.017,0.625,1,0,29
Ak1804,0,0,2,1.15,0.742,1,1,30
Ak1804,0,0,4,1.198,0.323,2,1,31
Ak1804,0,0,4,0.861,1.107,2,1,32
Ak1804,1,1,4,1.151,0.599,2,1,33
Ak1804,0,0,2,1.217,0.856,1,1,34
Ak1804,1,0,4,0.979,0.717,2,0,35
Ak1804,0,0,4,1.074,0.362,2,1,36
an1312,0,0,2,1.289,1.584,1,1,1
an1312,1,1,3,1.101,0.595,1,1,2
an1312,1,0,1,1.491,0.75,1,0,3
an1312,0,0,3,1.263,0.989,2,1,4
an1312,0,1,4,0.97,0.667,1,0,5
an1312,1,1,3,1.182,0.819,2,1,6
an1312,0,0,4,1.282,1.25,2,1,7
an1312,0,0,2,1.085,0.554,2,1,8
an1312,0,1,4,1.029,0.536,1,0,9
an1312,0,0,2,1.212,0.243,2,1,10
an1312,1,1,2,0.995,0.253,1,1,11
an1312,1,1,2,0.975,0.464,1,1,12
an1312,1,1,2,0.814,0.752,2,1,13
an1312,1,1,2,1.011,0.869,2,1,14
an1312,1,1,2,1.074,0.426,1,1,15
an1312,0,1,1,0.938,0.81,2,0,16
an1312,0,1,4,0.791,0.386,1,0,17
an1312,0,1,3,0.878,0.7,2,0,18
an1312,1,1,4,1.025,1.008,1,1,19
an1312,0,0,2,1.171,0.436,2,1,20
an1312,0,1,NaN,0.941,0,1,0,21
an1312,0,1,2,0.96,0.224,1,0,22
an1312,1,1,4,1.171,1.039,2,1,23
an1312,0,0,2,1.6,0.9,2,1,24
an1312,1,1,2,1.148,0.581,2,1,25
an1312,1,1,2,0.728,0.779,1,1,26
an1312,0,1,2,0.921,0.531,2,0,27
an1312,1,1,3,0.838,1.963,2,1,28
an1312,1,1,1,0.862,1.155,2,1,29
an1312,1,1,2,0.828,0.733,1,1,30
an1312,1,1,2,0.861,0.74,2,1,31
an1312,1,1,2,0.897,0.569,1,1,32
an1312,0,0,3,1.311,1.059,1,1,33
an1312,0,0,2,1.061,2.084,1,1,34
an1312,1,1,2,1.018,0.199,2,1,35
an1312,0,0,2,0.945,0.771,1,1,36
an1312,0,0,2,1.796,1.789,2,1,1
an1312,0,1,2,1.123,0.309,1,0,2
an1312,0,0,2,1.117,0.773,2,1,3
an1312,1,0,1,1.273,0.14,1,0,4
an1312,0,0,4,1.358,1.639,2,1,5
an1312,1,1,3,0.928,0.605,2,1,6
an1312,1,1,3,1.017,1.001,1,1,7
an1312,0,1,3,0.854,0.591,2,0,8
an1312,0,1,3,1.26,0.808,1,0,9
an1312,1,1,2,0.865,0.7,2,1,10
an1312,0,1,3,1.058,0.893,1,0,11
an1312,1,0,3,1.328,0.671,2,0,12
an1312,0,1,3,1.451,0.581,2,0,13
an1312,1,0,2,1.323,0.761,1,0,14
an1312,0,1,3,1.011,0.088,1,0,15
an1312,0,1,3,1.164,0.186,2,0,16
an1312,1,1,2,0.987,0.262,2,1,17
an1312,1,1,4,0.96,0.273,1,1,18
an1312,1,1,3,0.834,0.749,2,1,19
an1312,0,1,3,0.753,0.504,2,0,20
an1312,1,1,3,0.818,0.137,2,1,21
an1312,0,0,3,1.09,1.588,2,1,22
an1312,1,1,3,0.721,1.229,2,1,23
an1312,1,1,4,0.761,1.446,1,1,24
an1312,1,1,3,0.947,0.017,1,1,25
an1312,1,1,3,0.872,0.729,1,1,26
an1312,1,1,3,0.661,0.175,1,1,27
an1312,1,1,3,0.719,0.977,2,1,28
an1312,0,0,3,1.11,0.84,1,1,29
an1312,1,0,3,0.983,0.034,1,0,30
an1312,0,1,3,1.058,1.466,1,0,31
an1312,0,0,3,1.015,0.715,1,1,32
an1312,0,1,NaN,1.276,0,1,0,33
an1312,0,1,3,0.992,0.09,2,0,34
an1312,0,1,2,0.923,0.143,1,0,35
an1312,1,1,3,0.812,0.401,2,1,36
an1312,1,1,3,1.063,1.386,1,1,1
an1312,1,0,3,1.072,0.962,1,0,2
an1312,1,1,3,1.048,0.869,2,1,3
an1312,0,1,3,0.676,0.73,1,0,4
an1312,0,1,2,1.188,0.679,1,0,5
an1312,1,1,NaN,0.801,0,1,1,6
an1312,0,0,2,1.009,0.586,1,1,7
an1312,1,1,4,0.97,0.465,1,1,8
an1312,1,1,4,2.026,0.842,2,1,9
an1312,1,1,3,1.041,0.169,1,1,10
an1312,1,1,3,1.101,0.312,1,1,11
an1312,0,1,3,0.822,0.076,2,0,12
an1312,1,1,2,0.954,0.327,2,1,13
an1312,0,0,3,0.981,0.052,2,1,14
an1312,1,1,3,0.833,0.051,2,1,15
an1312,0,1,3,1.088,2.188,2,0,16
an1312,1,0,3,1.056,0.771,2,0,17
an1312,0,1,3,1.003,0.092,1,0,18
an1312,1,1,3,1.051,2.749,2,1,19
an1312,0,0,3,1.063,1.47,2,1,20
an1312,1,0,3,1.307,1.46,1,0,21
an1312,1,1,2,0.834,1.4,2,1,22
an1312,0,0,4,0.987,0.647,1,1,23
an1312,1,0,3,1.179,1.703,2,0,24
an1312,1,1,3,0.923,0.576,1,1,25
an1312,0,1,3,0.902,1.588,2,0,26
an1312,1,1,3,0.924,1.293,2,1,27
an1312,0,1,3,0.904,0.163,2,0,28
an1312,0,1,3,0.768,1.698,2,0,29
an1312,1,0,2,0.997,0.271,1,0,30
an1312,0,1,3,1.066,0,2,0,31
an1312,0,0,3,0.958,0.842,1,1,32
an1312,0,1,3,0.96,0.768,1,0,33
an1312,0,1,2,1.035,1.185,1,0,34
an1312,0,0,3,0.903,0.771,2,1,35
an1312,0,0,3,1.131,1.401,1,1,36
an1312,1,1,4,1.844,1.922,2,1,1
an1312,0,0,3,1.03,0.017,1,1,2
an1312,1,0,3,1.052,1.083,1,0,3
an1312,1,1,3,0.818,0.555,2,1,4
an1312,1,1,3,0.947,1.229,1,1,5
an1312,0,0,2,0.943,0.659,1,1,6
an1312,0,0,4,0.98,0.672,1,1,7
an1312,0,0,4,1.304,0.986,2,1,8
an1312,0,1,3,1.276,0.19,2,0,9
an1312,0,0,3,1.012,0.75,1,1,10
an1312,0,0,4,0.97,0.125,2,1,11
an1312,0,0,3,1.008,0.958,2,1,12
an1312,0,0,3,1.109,0.842,1,1,13
an1312,0,1,3,1.007,1.461,2,0,14
an1312,1,1,3,1.001,0.175,1,1,15
an1312,1,1,3,0.781,1.586,2,1,16
an1312,1,1,4,0.884,0.916,2,1,17
an1312,0,1,3,1.278,0.606,2,0,18
an1312,0,0,2,1.099,0.001,1,1,19
an1312,1,1,2,1.04,0.076,1,1,20
an1312,1,0,2,1.404,0.076,2,0,21
an1312,1,1,3,0.794,0.034,2,1,22
an1312,0,1,3,0.975,0.125,1,0,23
an1312,1,1,3,1.067,0.238,1,1,24
an1312,1,1,3,0.832,0.918,2,1,25
an1312,0,1,2,0.961,0.656,2,0,26
an1312,0,1,3,0.881,0.843,2,0,27
an1312,0,1,3,0.915,0.535,1,0,28
an1312,0,1,2,0.845,0.535,1,0,29
an1312,1,1,3,0.907,0.628,1,1,30
an1312,1,1,3,0.948,0.319,1,1,31
an1312,0,1,3,0.805,0.987,2,0,32
an1312,1,1,4,1.014,0.236,1,1,33
an1312,1,1,3,0.829,0.073,2,1,34
an1312,1,1,3,0.931,0.884,1,1,35
an1312,1,1,3,1.022,0.246,2,1,36
an1312,1,1,4,1.283,1.713,2,1,1
an1312,1,1,3,1.21,0.189,2,1,2
an1312,0,1,3,1.094,1.436,2,0,3
an1312,0,1,2,1.39,0.651,1,0,4
an1312,1,1,3,0.972,0.194,1,1,5
an1312,1,0,4,1.381,1.263,1,0,6
an1312,0,1,2,1.011,1.152,2,0,7
an1312,1,1,2,0.909,0.075,2,1,8
an1312,0,0,3,1.228,0.763,1,1,9
an1312,0,1,4,1.084,0.957,2,0,10
an1312,1,1,2,0.918,0.799,2,1,11
an1312,1,1,3,0.992,0.074,1,1,12
an1312,1,0,2,1.096,0.017,1,0,13
an1312,0,0,3,1.164,0.737,2,1,14
an1312,0,0,2,1.139,0.05,2,1,15
an1312,1,0,2,1.37,1.697,1,0,16
an1312,1,1,2,1.061,0.888,1,1,17
an1312,1,0,3,1.368,1.582,2,0,18
an1312,1,1,3,0.931,1.533,1,1,19
an1312,0,0,3,0.979,1.306,1,1,20
an1312,1,0,3,1.002,0.748,2,0,21
an1312,0,0,3,1.22,1.08,2,1,22
an1312,0,0,3,1.038,0.662,1,1,23
an1312,0,0,3,1.028,0.722,1,1,24
an1312,1,1,2,1.067,0,2,1,25
an1312,0,0,2,1.15,0,2,1,26
an1312,0,1,3,0.834,0.624,2,0,27
an1312,0,0,3,1.932,1.051,1,1,28
an1312,1,1,3,1.031,2.852,2,1,29
an1312,0,1,2,0.852,1.181,1,0,30
an1312,1,1,3,0.925,0.092,2,1,31
an1312,0,0,3,1.139,0.838,1,1,32
an1312,0,1,2,0.759,0.073,1,0,33
an1312,1,1,2,0.796,0.05,1,1,34
an1312,0,0,3,1.011,0.189,2,1,35
an1312,1,1,3,0.744,0.638,1,1,36
km0610,0,NaN,2,NaN,1.731,1,0,1
km0610,1,1,3,1.307,1.481,2,1,2
km0610,1,0,3,1.157,1.233,1,0,3
km0610,0,1,4,1.317,1.184,2,0,4
km0610,1,0,2,2.117,1.135,1,0,5
km0610,1,0,3,1.743,1.421,1,0,6
km0610,1,1,4,1.031,1.091,2,1,7
km0610,0,0,4,1.328,1.558,2,1,8
km0610,1,1,4,1.044,0.743,2,1,9
km0610,0,0,4,0.977,0.384,2,1,10
km0610,0,0,3,2.017,1.879,2,1,11
km0610,1,1,2,1.351,2.113,1,1,12
km0610,1,1,2,1.467,1.293,1,1,13
km0610,0,0,4,1.167,1.274,1,1,14
km0610,0,0,3,0.967,0.645,1,1,15
km0610,1,1,4,1.563,1.14,2,1,16
km0610,0,0,2,1.226,1.274,1,1,17
km0610,0,0,3,2.351,0.719,2,1,18
km0610,0,0,2,1.13,2.072,1,1,19
km0610,1,0,3,1.094,1.893,1,0,20
km0610,1,1,3,1.261,1.053,1,1,21
km0610,1,1,3,2.147,0.697,2,1,22
km0610,1,1,4,1.217,0.766,2,1,23
km0610,1,1,3,1.151,0.761,1,1,24
km0610,0,0,3,1.017,0.625,1,1,25
km0610,0,0,4,0.961,0.364,2,1,26
km0610,0,0,2,0.946,1.017,2,1,27
km0610,1,1,3,1.724,1.13,2,1,28
km0610,0,0,3,0.911,1.386,1,1,29
km0610,1,0,4,2.197,0.674,2,0,30
km0610,0,0,2,0.997,0.465,1,1,31
km0610,1,1,4,1.351,0.23,2,1,32
km0610,0,1,4,0.95,0.001,2,0,33
km0610,0,0,3,1.047,1.51,1,1,34
km0610,0,0,2,0.794,1.884,2,1,35
km0610,1,1,3,1.579,0.435,1,1,36
mJ2510,0,0,3,2.108,2.24,1,1,1
mJ2510,1,1,3,1.351,1.758,1,1,2
mJ2510,1,1,3,1.706,1.179,1,1,3
mJ2510,1,1,3,2.102,1.674,1,1,4
mJ2510,0,0,3,2.156,2.594,1,1,5
mJ2510,1,1,2,1.645,1.39,2,1,6
mJ2510,0,0,3,2.697,2.521,2,1,7
mJ2510,0,0,2,1.627,2.288,2,1,8
mJ2510,1,1,3,1.578,1.972,1,1,9
mJ2510,1,Nan,3,NaN,2.125,2,0,10
mJ2510,1,1,2,1.386,2.061,2,1,11
mJ2510,1,1,2,1.232,1.836,1,1,12
mJ2510,1,1,1,2.437,1.631,2,1,13
mJ2510,0,0,2,1.657,1.898,2,1,14
mJ2510,1,1,2,1.664,1.302,2,1,15
mJ2510,0,0,3,1.691,2.307,1,1,16
mJ2510,0,0,3,2.273,1.377,1,1,17
mJ2510,0,0,2,1.724,1.841,1,1,18
mJ2510,1,1,2,1.632,0.684,1,1,19
mJ2510,0,0,2,1.794,0.256,1,1,20
mJ2510,1,1,2,1.554,0.847,2,1,21
mJ2510,0,0,3,1.926,1.125,2,1,22
mJ2510,1,1,2,1.278,1.239,2,1,23
mJ2510,0,0,2,0.986,0.897,2,1,24
mJ2510,0,0,2,1.129,0.488,2,1,25
mJ2510,0,1,2,2.297,1.529,1,0,26
mJ2510,1,1,2,2.397,0.987,2,1,27
mJ2510,0,0,2,1.23,0.673,1,1,28
mJ2510,0,0,2,1.154,0.971,1,1,29
mJ2510,1,1,2,1.326,0.574,2,1,30
mJ2510,1,1,2,1.817,0.633,1,1,31
mJ2510,1,1,2,1.079,0.705,1,1,32
mJ2510,0,0,2,1.164,0.554,2,1,33
mJ2510,1,1,2,1.248,0.455,1,1,34
mJ2510,0,0,2,2.322,1.204,2,1,35
mJ2510,0,0,2,2.256,0.593,2,1,36
mJ2510,0,0,NaN,1.602,0,1,1,1
mJ2510,0,0,3,1.453,1.013,1,1,2
mJ2510,1,1,3,1.724,0.892,2,1,3
mJ2510,0,0,2,1.337,0.913,2,1,4
mJ2510,1,1,3,1.736,1.576,2,1,5
mJ2510,1,1,3,1.301,0.669,1,1,6
mJ2510,1,0,3,2.346,0.196,2,0,7
mJ2510,0,0,2,2.466,1.317,2,1,8
mJ2510,1,1,2,1.339,0.915,1,1,9
mJ2510,1,1,3,2.954,1.296,2,1,10
mJ2510,0,NaN,2,NaN,1.981,2,0,11
mJ2510,1,1,3,2.258,1.241,2,1,12
mJ2510,0,0,2,1.568,0.883,1,1,13
mJ2510,1,1,2,1.099,0.813,1,1,14
mJ2510,1,1,2,1.221,0.81,1,1,15
mJ2510,0,0,2,1.982,0.753,2,1,16
mJ2510,0,0,3,1.227,1.055,1,1,17
mJ2510,0,0,2,1.225,1.075,1,1,18
mJ2510,0,0,3,1.161,0.985,1,1,19
mJ2510,1,1,3,1.281,0.7,1,1,20
mJ2510,1,1,3,2.296,0.554,2,1,21
mJ2510,0,0,3,1.195,0.772,2,1,22
mJ2510,0,0,2,0.925,1.075,2,1,23
mJ2510,1,1,2,1.215,0.831,1,1,24
mJ2510,1,1,3,2.684,0.717,2,1,25
mJ2510,0,0,3,1.319,0.864,1,1,26
mJ2510,0,0,2,1.282,1.216,2,1,27
mJ2510,0,NaN,4,NaN,1.803,2,0,28
mJ2510,0,0,2,1.031,1.012,1,1,29
mJ2510,1,1,2,1.029,0.822,1,1,30
mJ2510,1,1,3,1.354,0.979,1,1,31
mJ2510,0,0,3,1.533,1.618,1,1,32
mJ2510,1,1,2,1.195,0.506,2,1,33
mJ2510,1,1,2,1.147,0.598,1,1,34
mJ2510,0,0,2,1.501,0.65,2,1,35
mJ2510,1,1,2,0.986,0.648,2,1,36
mJ2510,0,0,3,1.443,1.624,1,1,1
mJ2510,0,0,3,0.102,1.314,1,1,2
mJ2510,1,1,3,0.506,1.244,2,1,3
mJ2510,1,1,3,0.935,1.232,2,1,4
mJ2510,0,0,4,1.058,1.364,1,1,5
mJ2510,1,1,3,0.67,1.192,1,1,6
mJ2510,0,0,4,1.537,1.147,2,1,7
mJ2510,0,0,3,0.654,0.977,1,1,8
mJ2510,0,1,3,1.048,2.241,2,0,9
mJ2510,0,0,3,0.88,0.974,2,1,10
mJ2510,1,0,3,0.177,1.007,2,0,11
mJ2510,0,0,2,0.517,1.383,1,1,12
mJ2510,1,1,2,1.187,1.07,2,1,13
mJ2510,0,0,3,0.613,1.138,1,1,14
mJ2510,0,0,3,0.371,1.061,1,1,15
mJ2510,1,1,3,0.599,1.17,1,1,16
mJ2510,1,1,4,0.729,1.291,1,1,17
mJ2510,0,0,4,1.079,1.203,2,1,18
mJ2510,1,1,3,0.957,1.41,1,1,19
mJ2510,0,0,4,0.586,1.448,1,1,20
mJ2510,0,0,3,0.692,0.974,2,1,21
mJ2510,1,1,3,0.521,1.397,2,1,22
mJ2510,1,1,3,0.596,1.278,2,1,23
mJ2510,1,1,4,0.92,1.58,1,1,24
mJ2510,0,0,3,0.567,2.064,2,1,25
mJ2510,1,1,3,0.673,2.346,2,1,26
mJ2510,1,1,3,0.991,1.042,1,1,27
mJ2510,1,1,3,0.466,1.083,2,1,28
mJ2510,1,1,3,0.891,0.963,1,1,29
mJ2510,1,1,3,1.154,1.193,2,1,30
mJ2510,1,1,4,0.754,0.979,1,1,31
mJ2510,0,0,4,0.617,0.95,1,1,32
mJ2510,0,0,3,1.375,1.049,2,1,33
mJ2510,0,0,4,0.647,0.887,2,1,34
mJ2510,0,0,3,0.636,1.297,2,1,35
mJ2510,1,1,3,0.557,1.142,1,1,36
mJ2510,1,1,3,0.653,1.319,2,1,1
mJ2510,1,1,4,0.442,1.107,2,1,2
mJ2510,1,1,3,0.711,1.092,2,1,3
mJ2510,0,0,4,0.511,0.973,2,1,4
mJ2510,1,1,2,0.598,1.102,1,1,5
mJ2510,0,0,4,0.777,1.087,1,1,6
mJ2510,1,1,3,2.946,1.517,2,1,7
mJ2510,0,0,4,0.51,1.257,2,1,8
mJ2510,0,0,3,0.578,1.389,1,1,9
mJ2510,1,1,4,0.725,1.642,2,1,10
mJ2510,0,0,2,1.166,2.06,2,1,11
mJ2510,0,0,3,0.576,1.064,1,1,12
mJ2510,1,1,3,0.855,1.997,2,1,13
mJ2510,1,1,3,0.6,0.983,1,1,14
mJ2510,1,1,4,0.762,0.972,1,1,15
mJ2510,1,1,4,0.455,1.014,2,1,16
mJ2510,1,1,3,0.92,1.08,2,1,17
mJ2510,0,0,4,0.456,0.861,2,1,18
mJ2510,0,0,3,0.35,1.034,2,1,19
mJ2510,0,0,3,0.352,1.198,1,1,20
mJ2510,0,0,2,0.525,1.258,1,1,21
mJ2510,1,1,3,0.439,1.275,1,1,22
mJ2510,0,0,4,0.826,1.164,1,1,23
mJ2510,1,1,3,1.417,1.896,1,1,24
mJ2510,0,0,4,0.506,0.927,2,1,25
mJ2510,0,0,3,0.389,0.908,1,1,26
mJ2510,0,0,3,0.365,0.919,2,1,27
mJ2510,0,0,3,1.326,0.856,2,1,28
mJ2510,1,1,3,0.616,1.651,1,1,29
mJ2510,0,0,4,0.416,1.001,1,1,30
mJ2510,1,1,2,1.104,1.38,1,1,31
mJ2510,1,1,3,0.595,0.959,2,1,32
mJ2510,0,0,4,0.536,0.892,2,1,33
mJ2510,1,1,3,0.624,1.391,1,1,34
mJ2510,0,0,4,0.527,1.122,1,1,35
mJ2510,1,1,2,1.035,1.015,1,1,36
PD1907,1,1,NaN,1.786,NaN,2,1,1
PD1907,1,1,4,2.498,1.921,1,1,2
PD1907,0,0,3,1.075,2.381,1,1,3
PD1907,0,0,4,1.127,0.45,1,1,4
PD1907,1,1,2,1.072,0.583,2,1,5
PD1907,0,0,3,1.465,1.034,2,1,6
PD1907,1,1,2,1.081,0.536,1,1,7
PD1907,1,1,4,1.828,0.461,1,1,8
PD1907,0,NaN,2,NaN,1.617,1,0,9
PD1907,1,1,2,0.946,1.505,2,1,10
PD1907,0,0,3,1.057,1.075,1,1,11
PD1907,0,0,3,1.247,0.58,1,1,12
PD1907,0,0,4,1.183,0.41,1,1,13
PD1907,1,1,2,1.41,0.606,2,1,14
PD1907,1,1,1,1.896,0.487,2,1,15
PD1907,1,1,2,1.129,0.441,1,1,16
PD1907,0,1,4,1.436,0.447,2,0,17
PD1907,0,1,1,1.478,0.442,1,0,18
PD1907,1,0,2,1.091,0.623,1,0,19
PD1907,1,1,3,1.49,0.512,1,1,20
PD1907,0,0,4,1.2,0.516,1,1,21
PD1907,0,0,2,1.091,0.576,2,1,22
PD1907,1,1,4,1.062,0.522,1,1,23
PD1907,0,1,3,1.552,0.415,2,0,24
PD1907,1,1,2,1.616,1.049,2,1,25
PD1907,0,0,4,1.037,0.48,2,1,26
PD1907,1,0,4,1.032,0.351,2,0,27
PD1907,1,1,2,1.051,0.793,1,1,28
PD1907,0,0,4,1.031,0.352,2,1,29
PD1907,1,1,4,1.574,0.338,2,1,30
PD1907,1,1,2,1.22,0.296,1,1,31
PD1907,0,1,3,1.582,0.286,2,0,32
PD1907,0,0,2,1.219,0.291,1,1,33
PD1907,0,0,3,1.33,0.354,2,1,34
PD1907,0,0,2,1.426,0.413,2,1,35
PD1907,1,1,4,1.208,0.458,2,1,36
st0704,0,0,3,1.184,1.734,1,1,1
st0704,0,0,2,1.3,1.117,2,1,2
st0704,0,1,2,1.834,0.75,1,0,3
st0704,1,1,2,1.65,0.817,2,1,4
st0704,0,0,2,1.117,0.95,1,1,5
st0704,0,1,3,1.367,1,2,0,6
st0704,1,1,2,1.701,0.95,2,1,7
st0704,0,0,2,1.051,0.717,1,1,8
st0704,0,0,2,1.2,0.65,1,1,9
st0704,0,1,2,1.134,0.8,2,0,10
st0704,1,1,2,1.2,0.984,2,1,11
st0704,1,1,2,1.201,0.6,1,1,12
st0704,0,0,2,1.434,0.867,2,1,13
st0704,1,1,2,1.317,0.567,2,1,14
st0704,1,1,3,1.351,0.867,1,1,15
st0704,1,1,2,1.101,0.917,2,1,16
st0704,1,0,2,1.201,0.6,1,0,17
st0704,1,1,2,1.017,0.7,1,1,18
st0704,1,0,2,1.367,0.434,1,0,19
st0704,1,0,2,1.117,0.584,2,0,20
st0704,1,1,2,1.201,0.55,1,1,21
st0704,0,0,4,1.451,0.75,2,1,22
st0704,1,0,2,1.634,0.934,1,0,23
st0704,1,0,2,1.134,0.667,2,0,24
st0704,1,0,2,1.367,1.25,2,0,25
st0704,0,0,2,1.234,0.534,2,1,26
st0704,0,0,2,1.017,0.65,1,1,27
st0704,0,0,2,1.95,0.634,1,1,28
st0704,0,0,2,0.967,0.634,2,1,29
st0704,1,0,2,0.967,0.617,2,0,30
st0704,0,1,2,1.468,0.484,1,0,31
st0704,0,0,2,0.984,0.584,1,1,32
st0704,1,0,2,1.201,0.417,1,0,33
st0704,1,0,2,1.017,0.534,1,0,34
st0704,0,0,2,1.034,0.634,2,1,35
st0704,0,0,2,1.001,0.567,2,1,36
st0704,0,0,3,2.167,1.467,2,1,1
st0704,1,0,3,0.534,1.884,2,0,2
st0704,0,0,3,0.534,1.25,1,1,3
st0704,1,1,2,0.884,1.234,2,1,4
st0704,1,1,3,0.65,1.451,1,1,5
st0704,1,1,4,0.967,2.118,2,1,6
st0704,1,0,2,0.9,1.034,1,0,7
st0704,0,0,3,1.317,1.584,1,1,8
st0704,0,0,2,1.05,1.718,1,1,9
st0704,0,0,2,0.967,1.568,2,1,10
st0704,1,1,2,0.734,1.117,1,1,11
st0704,0,0,3,0.5,1.517,1,1,12
st0704,1,1,3,0.917,1.35,2,1,13
st0704,0,0,3,1.15,1.117,1,1,14
st0704,0,1,3,0.9,1.935,2,0,15
st0704,1,1,3,0.667,1.735,2,1,16
st0704,0,0,3,0.717,1,1,1,17
st0704,0,0,2,0.934,1.017,1,1,18
st0704,1,1,2,0.8,1.118,1,1,19
st0704,0,0,3,0.55,1.067,1,1,20
st0704,0,1,3,0.734,1.984,2,0,21
st0704,0,0,3,0.934,1.2,2,1,22
st0704,1,0,3,0.517,1.517,2,0,23
st0704,0,0,3,0.634,1.312,2,1,24
st0704,1,1,2,0.5,1.234,2,1,25
st0704,1,1,2,0.534,1.15,1,1,26
st0704,1,0,2,0.484,1.117,1,0,27
st0704,0,0,2,0.7,1.367,2,1,28
st0704,1,1,2,0.8,1.217,2,1,29
st0704,0,0,2,0.567,1.451,1,1,30
st0704,1,1,2,0.567,1.201,2,1,31
st0704,1,0,2,0.534,1.101,1,0,32
st0704,0,0,3,0.5,1.317,2,1,33
st0704,1,0,3,0.634,1.067,1,0,34
st0704,1,0,2,0.817,1.134,1,0,35
st0704,0,NaN,2,NaN,0.9,2,0,36
st0704,1,0,4,1.517,1.101,1,0,1
st0704,0,0,4,2.1,0.817,1,1,2
st0704,0,1,4,1.084,1.184,2,0,3
st0704,0,0,2,1.85,1.151,1,1,4
st0704,1,0,3,0.817,1.468,2,0,5
st0704,0,0,2,0.684,1.034,1,1,6
st0704,1,1,3,0.884,1.184,2,1,7
st0704,0,1,3,0.767,0.934,1,0,8
st0704,0,1,3,0.567,0.9,2,0,9
st0704,0,0,3,0.684,1.017,2,1,10
st0704,0,0,3,0.667,1.151,1,1,11
st0704,1,0,3,0.384,1.084,1,0,12
st0704,1,1,3,0.517,0.9,1,1,13
st0704,1,1,3,0.7,1.001,2,1,14
st0704,1,1,3,0.55,0.884,1,1,15
st0704,1,1,4,0.45,0.901,2,1,16
st0704,1,1,4,0.584,0.7,2,1,17
st0704,0,0,4,0.334,1.284,2,1,18
st0704,1,1,3,0.584,0.833,1,1,19
st0704,1,1,2,1.184,1.051,1,1,20
st0704,1,1,2,0.65,0.901,1,1,21
st0704,1,0,2,0.701,1.017,2,0,22
st0704,1,1,3,0.95,0.784,2,1,23
st0704,1,1,3,0.467,0.884,1,1,24
st0704,1,1,3,0.15,1.367,2,1,25
st0704,0,0,3,0.3,0.967,2,1,26
st0704,1,1,3,0.5,1.534,2,1,27
st0704,0,1,3,0.684,1.101,1,0,28
st0704,0,0,3,0.484,0.884,1,1,29
st0704,0,0,3,0.05,1.434,2,1,30
st0704,0,0,3,0.75,1.034,2,1,31
st0704,0,0,3,0.467,1.017,1,1,32
st0704,1,1,3,0.45,1.167,1,1,33
st0704,0,0,3,0.434,1,1,1,34
st0704,0,0,3,0.384,1.367,2,1,35
st0704,0,0,3,0.1,1.067,2,1,36
st0704,0,NaN,NaN,NaN,NaN,2,0,1
st0704,0,0,2,1.317,1.2,2,1,2
st0704,0,0,3,1.234,1,1,1,3
st0704,0,0,3,1.317,1.084,2,1,4
st0704,0,0,4,1.267,1.1,2,1,5
st0704,0,0,3,1.217,1.067,1,1,6
st0704,1,1,3,1.27,1.447,2,1,7
st0704,1,1,3,1.717,0.85,1,1,8
st0704,1,1,3,1.051,0.984,2,1,9
st0704,1,1,3,0.984,0.934,2,1,10
st0704,1,1,3,1.051,0.884,2,1,11
st0704,1,1,3,1.051,0.717,2,1,12
st0704,0,1,3,0.967,0.65,2,0,13
st0704,0,0,2,1.134,1.067,1,1,14
st0704,0,0,NaN,1.101,NaN,1,1,15
st0704,0,0,2,1.218,0.717,2,1,16
st0704,1,1,2,1.367,0.85,1,1,17
st0704,0,0,2,1.251,1.512,2,1,18
st0704,1,0,3,1.901,1.1,1,0,19
st0704,1,1,1,1.301,1.369,1,1,20
st0704,1,0,1,1.2,1.097,2,0,21
st0704,0,0,2,1.334,1,1,1,22
st0704,1,0,2,1.317,0.817,1,0,23
st0704,0,0,2,1.084,0.917,1,1,24
st0704,1,0,2,1.251,0.934,2,0,25
st0704,1,1,2,1.701,0.05,1,1,26
st0704,1,1,2,1.784,0.617,1,1,27
st0704,0,0,4,1.201,0.5,2,1,28
st0704,0,1,2,1.384,0.584,1,0,29
st0704,0,0,2,1.117,0.734,2,1,30
st0704,1,1,2,1.017,0.8,2,1,31
st0704,1,1,2,0.667,1.05,1,1,32
st0704,0,0,2,1.017,0.784,1,1,33
st0704,1,1,2,0.951,0.684,1,1,34
st0704,0,1,4,1.451,0.967,1,0,35
st0704,1,1,4,1.101,0.734,2,1,36
wp3004,1,1,4,1.228,1.262,2,1,1
wp3004,1,1,4,0.896,0.871,1,1,2
wp3004,1,1,4,1.013,0.034,2,1,3
wp3004,0,0,3,1.048,1.718,1,1,4
wp3004,1,1,4,1.135,0.332,2,1,5
wp3004,1,1,3,1.493,1.609,1,1,6
wp3004,1,1,4,1.864,0.576,2,1,7
wp3004,0,0,4,0.809,0.441,2,1,8
wp3004,1,1,4,0.767,0.701,2,1,9
wp3004,1,1,4,0.998,1.035,2,1,10
wp3004,1,1,4,0.778,0.823,1,1,11
wp3004,0,0,3,1.314,1.327,2,1,12
wp3004,1,1,3,1.009,0.507,1,1,13
wp3004,0,0,3,1.074,0.609,1,1,14
wp3004,0,0,4,0.888,0.946,1,1,15
wp3004,0,0,4,0.973,1.01,2,1,16
wp3004,1,1,4,0.991,2.177,2,1,17
wp3004,0,0,4,1.09,0.799,1,1,18
wp3004,1,1,4,1.628,0.949,1,1,19
wp3004,1,1,4,0.914,0.953,2,1,20
wp3004,0,0,3,0.937,0.747,1,1,21
wp3004,0,0,4,1.034,0.622,1,1,22
wp3004,0,0,4,1.214,0.553,2,1,23
wp3004,0,0,3,1.1,0.549,2,1,24
wp3004,0,0,4,1.881,0.621,1,1,25
wp3004,1,1,3,1.431,1.535,2,1,26
wp3004,0,0,4,1.108,0.509,2,1,27
wp3004,1,1,3,0.96,0.589,1,1,28
wp3004,1,0,4,1.168,0.715,1,0,29
wp3004,0,0,3,0.935,0.781,2,1,30
wp3004,0,0,3,1.111,1.057,2,1,31
wp3004,0,1,4,2.855,0.387,2,0,32
wp3004,0,0,3,1.02,0.463,1,1,33
wp3004,0,1,4,1.284,0.528,1,0,34
wp3004,1,1,3,1.643,0.459,1,1,35
wp3004,1,1,3,1.055,0.661,1,1,36
wp3004,1,1,3,1.279,1.279,1,1,1
wp3004,0,0,3,0.91,0.91,1,1,2
wp3004,0,0,3,0.897,0.897,2,1,3
wp3004,0,0,4,0.889,0.889,2,1,4
wp3004,1,1,4,0.776,0.776,1,1,5
wp3004,0,0,4,0.84,0.84,1,1,6
wp3004,0,0,4,0.88,0.88,1,1,7
wp3004,1,0,3,1.72,1.72,2,0,8
wp3004,0,0,4,0.742,0.742,2,1,9
wp3004,0,0,3,0.899,0.899,1,1,10
wp3004,0,0,4,0.669,0.669,1,1,11
wp3004,0,0,4,0.655,0.655,2,1,12
wp3004,0,0,4,0.762,0.762,1,1,13
wp3004,0,0,4,0.609,0.609,2,1,14
wp3004,1,1,4,0.63,0.63,2,1,15
wp3004,1,1,3,1.256,1.256,1,1,16
wp3004,0,0,4,1.115,1.115,2,1,17
wp3004,0,0,4,0.691,0.691,2,1,18
wp3004,1,1,3,0.822,0.822,2,1,19
wp3004,1,0,3,0.65,0.65,1,0,20
wp3004,1,1,4,0.725,0.725,2,1,21
wp3004,1,0,4,0.604,0.604,2,0,22
wp3004,0,0,4,0.603,0.603,1,1,23
wp3004,1,1,4,0.655,0.655,2,1,24
wp3004,1,0,4,1.823,1.823,1,0,25
wp3004,1,1,4,0.645,0.645,2,1,26
wp3004,1,1,4,0.463,0.463,1,1,27
wp3004,1,1,3,1.098,1.098,1,1,28
wp3004,0,0,4,0.809,0.809,1,1,29
wp3004,1,1,3,0.942,0.942,1,1,30
wp3004,1,0,4,1.299,1.299,2,0,31
wp3004,0,0,4,1.041,1.041,2,1,32
wp3004,1,1,4,0.749,0.749,2,1,33
wp3004,1,1,3,0.662,0.662,1,1,34
wp3004,0,0,4,1.399,1.399,1,1,35
wp3004,0,0,4,0.805,0.805,2,1,36
wp3004,0,0,4,1.892,0.964,1,1,1
wp3004,1,1,4,0.613,0.817,1,1,2
wp3004,0,0,4,0.689,0.862,2,1,3
wp3004,1,1,4,0.735,0.348,2,1,4
wp3004,0,0,4,0.946,0.305,2,1,5
wp3004,0,0,4,0.775,0.438,1,1,6
wp3004,0,0,3,0.734,0.39,2,1,7
wp3004,1,0,3,0.633,0.416,1,0,8
wp3004,1,1,4,0.751,0.545,2,1,9
wp3004,1,1,3,0.666,0.323,1,1,10
wp3004,1,1,4,0.924,0.64,2,1,11
wp3004,0,0,4,0.772,0.893,1,1,12
wp3004,1,1,4,0.658,0.442,1,1,13
wp3004,1,1,3,1.137,0.413,2,1,14
wp3004,1,1,3,0.707,0.417,2,1,15
wp3004,1,1,4,1.017,0.349,1,1,16
wp3004,0,0,4,0.784,0.327,2,1,17
wp3004,0,0,3,0.792,0.308,1,1,18
wp3004,0,0,4,0.761,0.34,2,1,19
wp3004,1,1,4,0.707,0.344,1,1,20
wp3004,0,0,4,0.65,0.363,1,1,21
wp3004,0,0,4,0.582,0.351,2,1,22
wp3004,0,0,4,0.648,0.352,2,1,23
wp3004,1,1,4,0.62,0.329,2,1,24
wp3004,0,0,4,0.59,0.26,2,1,25
wp3004,0,0,4,0.825,0.302,1,1,26
wp3004,1,0,3,0.727,0.372,1,0,27
wp3004,1,1,4,0.671,0.325,2,1,28
wp3004,1,0,4,0.564,0.403,1,0,29
wp3004,0,0,4,0.749,0.351,2,1,30
wp3004,0,0,4,0.649,0.384,1,1,31
wp3004,0,0,3,0.676,0.374,1,1,32
wp3004,1,1,3,0.825,0.392,2,1,33
wp3004,1,1,4,0.765,0.434,1,1,34
wp3004,0,0,4,0.75,0.352,1,1,35
wp3004,1,1,3,0.774,0.342,2,1,36
wp3004,1,1,3,0.889,1.395,2,1,1
wp3004,1,0,4,0.957,0.943,1,0,2
wp3004,1,1,4,0.749,1.067,1,1,3
wp3004,1,0,3,0.929,0.522,2,0,4
wp3004,1,1,4,0.826,0.706,1,1,5
wp3004,1,1,4,0.762,0.339,1,1,6
wp3004,0,0,3,0.778,0.389,2,1,7
wp3004,0,0,4,0.999,1.536,1,1,8
wp3004,0,0,4,0.723,0.359,2,1,9
wp3004,0,0,4,0.718,0.688,2,1,10
wp3004,0,0,4,0.68,0.386,1,1,11
wp3004,0,0,4,0.688,0.377,1,1,12
wp3004,0,0,4,0.722,0.371,2,1,13
wp3004,0,0,4,0.617,0.35,1,1,14
wp3004,1,0,4,0.621,0.325,1,0,15
wp3004,0,0,4,0.777,0.344,2,1,16
wp3004,1,0,4,1.074,0.359,2,0,17
wp3004,1,1,4,0.694,0.34,2,1,18
wp3004,1,1,4,0.688,0.359,1,1,19
wp3004,1,0,4,1.087,0.349,1,0,20
wp3004,1,1,4,0.769,0.409,2,1,21
wp3004,0,0,4,0.623,0.325,1,1,22
wp3004,1,1,4,0.769,0.313,2,1,23
wp3004,0,0,4,0.958,0.341,1,1,24
wp3004,0,0,4,0.737,0.346,2,1,25
wp3004,0,0,4,0.763,0.277,1,1,26
wp3004,1,1,4,1.077,0.548,1,1,27
wp3004,1,1,4,1.627,0.34,1,1,28
wp3004,0,0,4,0.925,0.33,2,1,29
wp3004,1,1,4,0.7,0.392,2,1,30
wp3004,0,0,4,0.907,0.358,2,1,31
wp3004,1,1,4,0.535,0.331,2,1,32
wp3004,0,0,4,0.848,0.351,2,1,33
wp3004,0,0,4,0.641,0.404,1,1,34
wp3004,1,1,4,0.72,0.396,2,1,35
wp3004,0,0,4,0.656,0.417,1,1,36
wp3004,0,1,4,0.702,1.125,2,0,1
wp3004,1,1,4,0.618,0.382,2,1,2
wp3004,0,0,4,0.748,0.392,1,1,3
wp3004,0,0,4,0.966,0.433,2,1,4
wp3004,0,0,4,0.613,0.344,2,1,5
wp3004,1,1,4,0.638,0.396,2,1,6
wp3004,0,0,4,0.745,0.356,1,1,7
wp3004,0,0,4,0.658,0.343,2,1,8
wp3004,1,1,4,0.723,0.43,2,1,9
wp3004,0,0,4,0.635,0.322,2,1,10
wp3004,1,1,4,0.662,0.238,2,1,11
wp3004,0,0,4,0.626,0.358,1,1,12
wp3004,1,1,4,0.698,0.352,1,1,13
wp3004,1,1,4,0.692,0.439,2,1,14
wp3004,0,0,4,0.666,0.481,2,1,15
wp3004,1,1,4,0.735,0.331,1,1,16
wp3004,0,0,4,0.688,0.395,2,1,17
wp3004,1,1,4,0.648,0.352,1,1,18
wp3004,0,1,4,1.472,0.326,2,0,19
wp3004,0,0,4,0.667,0.349,1,1,20
wp3004,1,1,4,0.811,1.138,1,1,21
wp3004,1,0,4,0.924,0.384,1,0,22
wp3004,0,0,4,0.78,0.34,1,1,23
wp3004,1,1,4,0.683,0.39,2,1,24
wp3004,1,1,4,0.775,0.372,2,1,25
wp3004,0,0,4,1.322,0.392,1,1,26
wp3004,1,1,4,1.048,0.386,1,1,27
wp3004,0,0,4,0.819,0.348,1,1,28
wp3004,1,1,4,0.822,0.346,1,1,29
wp3004,1,1,4,0.937,0.327,1,1,30
wp3004,1,1,4,0.812,0.338,2,1,31
wp3004,0,0,3,0.977,0.973,1,1,32
wp3004,1,1,3,1.067,0.459,2,1,33
wp3004,1,0,3,0.667,0.348,1,0,34
wp3004,0,0,3,1.599,0.438,1,1,35
wp3004,0,0,3,0.847,0.46,2,1,36
wp3004,0,0,4,0.738,0.462,1,1,1
wp3004,0,0,4,0.719,0.325,1,1,2
wp3004,0,0,4,0.811,0.373,2,1,3
wp3004,0,0,4,0.765,0.319,1,1,4
wp3004,1,0,4,1.657,0.461,1,0,5
wp3004,1,1,4,0.65,0.35,2,1,6
wp3004,1,1,4,0.842,0.348,2,1,7
wp3004,1,1,4,0.643,0.374,1,1,8
wp3004,0,0,4,0.662,0.304,2,1,9
wp3004,1,1,4,0.807,0.143,1,1,10
wp3004,1,1,4,1.242,0.341,1,1,11
wp3004,1,1,4,0.717,0.395,2,1,12
wp3004,1,1,4,0.758,0.373,1,1,13
wp3004,1,1,4,0.777,0.372,2,1,14
wp3004,1,1,4,0.758,0.341,1,1,15
wp3004,0,1,4,0.972,0.375,2,0,16
wp3004,0,0,4,0.668,0.349,1,1,17
wp3004,1,1,4,0.782,0.352,1,1,18
wp3004,0,0,4,0.719,0.387,2,1,19
wp3004,0,0,4,0.681,0.42,1,1,20
wp3004,0,0,3,0.95,0.716,1,1,21
wp3004,1,0,4,0.878,0.388,2,0,22
wp3004,0,0,4,0.851,0.531,2,1,23
wp3004,1,1,4,0.64,0.359,2,1,24
wp3004,0,0,4,1.062,0.353,2,1,25
wp3004,1,0,4,0.839,0.395,2,0,26
wp3004,1,1,4,0.757,0.325,1,1,27
wp3004,0,0,4,0.655,0.32,1,1,28
wp3004,0,0,4,0.881,0.387,2,1,29
wp3004,0,0,4,0.854,0.392,1,1,30
wp3004,0,0,4,0.86,0.389,1,1,31
wp3004,0,0,4,0.854,0.397,2,1,32
wp3004,0,0,4,0.947,0.387,2,1,33
wp3004,1,0,4,0.958,0.374,2,0,34
wp3004,1,1,4,2.096,0.486,1,1,35
wp3004,1,1,4,0.868,0.362,2,1,36
mJ2510,0,0,3,1.272,0.402,1,1,1
mJ2510,1,1,4,1.474,0.388,1,1,2
mJ2510,1,1,3,1.812,0.413,2,1,3
mJ2510,1,1,3,1.217,0.648,1,1,4
mJ2510,0,0,4,1.245,0.556,2,1,5
mJ2510,1,1,3,1.703,0.329,1,1,6
mJ2510,1,1,3,1.187,0.364,2,1,7
mJ2510,1,1,3,1.391,0.299,1,1,8
mJ2510,0,0,4,1.512,0.304,1,1,9
mJ2510,1,1,3,1.174,0.666,2,1,10
mJ2510,1,1,4,1.466,0.351,1,1,11
mJ2510,1,1,3,1.261,0.623,2,1,12
mJ2510,0,0,4,1.231,0.352,1,1,13
mJ2510,0,0,4,1.196,0.637,2,1,14
mJ2510,1,1,3,1.386,0.465,2,1,15
mJ2510,1,1,4,1.412,0.374,2,1,16
mJ2510,0,0,4,1.214,0.337,1,1,17
mJ2510,1,1,3,1.192,0.482,1,1,18
mJ2510,0,0,4,1.204,0.346,1,1,19
mJ2510,0,0,3,1.263,0.531,2,1,20
mJ2510,1,1,3,1.72,0.497,2,1,21
mJ2510,0,0,4,1.593,0.302,1,1,22
mJ2510,1,1,3,1.987,0.392,2,1,23
mJ2510,0,0,2,1.275,0.409,2,1,24
mJ2510,0,0,3,1.193,0.624,1,1,25
mJ2510,0,0,4,1.309,0.345,2,1,26
mJ2510,1,1,3,1.38,0.344,1,1,27
mJ2510,0,0,3,1.238,0.396,2,1,28
mJ2510,1,1,3,1.123,0.372,1,1,29
mJ2510,0,0,4,1.326,0.374,2,1,30
mJ2510,0,0,3,1.361,0.483,2,1,31
mJ2510,0,0,3,1.447,0.337,1,1,32
mJ2510,0,0,3,1.169,0.48,1,1,33
mJ2510,0,0,4,1.267,0.466,2,1,34
mJ2510,1,1,3,1.605,0.397,2,1,35
mJ2510,1,1,4,1.348,0.435,1,1,36
Ak1804,1,1,4,1.1,0.531,2,1,1
Ak1804,1,0,4,2.181,0.349,2,0,2
Ak1804,1,0,4,1.179,0.332,2,0,3
Ak1804,1,0,4,1.383,0.418,2,0,4
Ak1804,1,1,4,1.16,0.388,2,1,5
Ak1804,1,1,4,1.431,0.606,2,1,6
Ak1804,1,0,4,1.127,0.385,2,0,7
Ak1804,1,1,4,1.117,0.274,2,1,8
Ak1804,1,0,4,1.297,0.654,2,0,9
Ak1804,1,1,4,0.511,0.332,1,1,10
Ak1804,1,1,3,1.035,0.251,1,1,11
Ak1804,1,1,3,0.993,0.65,1,1,12
Ak1804,1,1,3,0.834,0.859,1,1,13
Ak1804,1,1,3,0.834,0.95,1,1,14
Ak1804,1,1,3,1.251,0.489,1,1,15
Ak1804,1,0,2,0.861,0.719,1,0,16
Ak1804,1,1,3,0.894,0.453,1,1,17
Ak1804,1,0,3,0.934,0.324,1,0,18
Ak1804,0,0,4,0.991,0.256,2,1,19
Ak1804,0,0,4,1.067,0.277,2,1,20
Ak1804,0,0,4,0.817,0.605,2,1,21
Ak1804,0,1,4,1.094,0.334,2,0,22
Ak1804,0,0,3,0.861,1.463,2,1,23
Ak1804,0,0,4,1.127,0.487,2,1,24
Ak1804,0,0,4,0.917,0.398,2,1,25
Ak1804,0,0,4,0.834,0.322,2,1,26
Ak1804,0,1,4,1.214,0.279,2,0,27
Ak1804,0,0,4,1.371,1.348,1,1,28
Ak1804,0,0,3,0.911,0.339,1,1,29
Ak1804,0,0,3,1.064,0.347,1,1,30
Ak1804,0,0,2,1.117,0.368,1,1,31
Ak1804,0,0,3,0.811,0.366,1,1,32
Ak1804,0,1,4,1.147,0.255,1,0,33
Ak1804,0,0,2,1.7,0.415,1,1,34
Ak1804,0,0,3,0.86,0.524,1,1,35
Ak1804,0,1,3,1.458,0.502,1,0,36
Ak1804,1,1,4,0.994,0.613,2,1,1
Ak1804,1,1,4,0.894,0.979,2,1,2
Ak1804,1,1,4,1.734,0.581,2,1,3
Ak1804,1,0,4,1.044,0.301,2,0,4
Ak1804,1,1,2,1,0.628,2,1,5
Ak1804,1,1,3,1.079,0.552,2,1,6
Ak1804,1,1,4,0.945,0.289,2,1,7
Ak1804,1,1,4,1.057,0.419,2,1,8
Ak1804,1,1,2,1.544,0.614,2,1,9
Ak1804,1,1,3,0.794,0.457,1,1,10
Ak1804,1,1,2,1.047,0.653,1,1,11
Ak1804,1,1,2,0.998,0.512,1,1,12
Ak1804,1,0,4,2.25,0.764,1,0,13
Ak1804,1,0,2,1.517,0.949,1,0,14
Ak1804,1,1,3,1.284,0.369,1,1,15
Ak1804,1,1,3,0.876,0.431,1,1,16
Ak1804,1,1,4,1.101,0.929,1,1,17
Ak1804,1,1,3,1.142,0.339,1,1,18
Ak1804,0,0,4,1.177,0.525,2,1,19
Ak1804,0,0,4,0.984,0.483,2,1,20
Ak1804,0,0,4,1.567,0.319,2,1,21
Ak1804,0,1,3,1.164,0.633,2,0,22
Ak1804,0,0,4,1.017,0.34,2,1,23
Ak1804,0,0,4,0.846,0.568,2,1,24
Ak1804,0,0,3,0.861,0.651,2,1,25
Ak1804,0,0,4,0.784,0.44,2,1,26
Ak1804,0,0,3,0.841,0.201,2,1,27
Ak1804,0,0,4,0.767,0.831,1,1,28
Ak1804,0,0,2,0.95,0.789,1,1,29
Ak1804,0,0,3,1.164,0.948,1,1,30
Ak1804,0,0,3,1.231,0.792,1,1,31
Ak1804,0,0,4,0.834,0.439,1,1,32
Ak1804,0,0,3,1.384,0.348,1,1,33
Ak1804,0,0,3,0.974,1.142,1,1,34
Ak1804,0,0,2,0.8,0.664,1,1,35
Ak1804,0,0,3,0.878,1.01,1,1,36
Ak1804,1,1,4,1.124,0.309,2,1,1
Ak1804,1,1,4,1.374,0.31,2,1,2
Ak1804,1,1,4,1.284,0.531,2,1,3
Ak1804,1,1,4,1.034,0.294,2,1,4
Ak1804,1,0,4,1.167,0.315,2,0,5
Ak1804,1,0,3,1.567,0.321,2,0,6
Ak1804,1,1,4,0.951,0.3,2,1,7
Ak1804,1,1,3,1.124,0.379,2,1,8
Ak1804,1,1,4,0.934,0.574,2,1,9
Ak1804,1,1,4,1.097,0.318,1,1,10
Ak1804,1,1,3,0.981,1.184,1,1,11
Ak1804,1,1,4,1.1,0.416,1,1,12
Ak1804,1,1,4,1.023,0.617,1,1,13
Ak1804,1,1,4,0.993,0.532,1,1,14
Ak1804,1,0,3,1.15,0.785,1,0,15
Ak1804,1,1,2,1.111,0.664,1,1,16
Ak1804,1,0,4,1.694,0.625,1,0,17
Ak1804,1,0,3,1.346,0.97,1,0,18
Ak1804,0,0,4,1.111,0.299,2,1,19
Ak1804,0,0,4,1.208,0.62,2,1,20
Ak1804,0,0,4,1.008,0.338,2,1,21
Ak1804,0,0,4,1.167,0.324,2,1,22
Ak1804,0,0,4,1.217,0.323,2,1,23
Ak1804,0,0,2,1.827,1.275,2,1,24
Ak1804,0,0,4,1,0.373,2,1,25
Ak1804,0,0,3,1.161,0.284,2,1,26
Ak1804,0,0,3,1.563,1.015,2,1,27
Ak1804,0,0,4,1.327,0.338,1,1,28
Ak1804,0,0,3,1.108,0.433,1,1,29
Ak1804,0,0,2,1.214,0.488,1,1,30
Ak1804,0,0,4,1.214,0.386,1,1,31
Ak1804,0,0,3,2.234,0.392,1,1,32
Ak1804,0,0,3,1.042,0.395,1,1,33
Ak1804,0,0,4,1.151,0.344,1,1,34
Ak1804,0,0,3,1,0.32,1,1,35
Ak1804,0,0,3,1.334,0.391,1,1,36
Ak1804,1,1,4,1.391,0.357,2,1,1
Ak1804,1,0,4,1.184,0.339,2,0,2
Ak1804,1,1,4,1.013,0.554,2,1,3
Ak1804,1,1,4,1.059,0.534,2,1,4
Ak1804,1,1,4,1.063,0.387,2,1,5
Ak1804,1,0,4,1.251,0.137,2,0,6
Ak1804,1,1,4,1.334,0.491,2,1,7
Ak1804,1,1,4,1.1,0.366,2,1,8
Ak1804,1,1,4,1.376,0.598,2,1,9
Ak1804,1,1,4,1.097,0.343,1,1,10
Ak1804,1,1,3,1.017,0.46,1,1,11
Ak1804,1,1,4,1.864,0.318,1,1,12
Ak1804,1,1,4,1.1,0.506,1,1,13
Ak1804,1,1,3,1.114,0.965,1,1,14
Ak1804,1,1,4,1.175,0.37,1,1,15
Ak1804,1,1,4,1.139,0.292,1,1,16
Ak1804,1,0,4,1.229,0.326,1,0,17
Ak1804,1,1,4,1.111,1.03,1,1,18
Ak1804,0,0,4,1.257,0.519,2,1,19
Ak1804,0,0,4,1.094,0.525,2,1,20
Ak1804,0,0,3,1.091,0.361,2,1,21
Ak1804,0,0,3,1.28,1.34,2,1,22
Ak1804,0,0,4,1.777,0.843,2,1,23
Ak1804,0,0,4,1.331,0.6,2,1,24
Ak1804,0,0,4,1.217,0.323,2,1,25
Ak1804,0,0,4,1.181,0.371,2,1,26
Ak1804,0,0,4,1.24,0.338,2,1,27
Ak1804,0,0,3,1.442,0.627,1,1,28
Ak1804,0,0,4,1.197,0.627,1,1,29
Ak1804,0,0,3,1.298,0.74,1,1,30
Ak1804,0,0,4,1.5,0.342,1,1,31
Ak1804,0,0,4,2.017,0.951,1,1,32
Ak1804,0,0,4,2.061,1.117,1,1,33
Ak1804,0,0,4,1.577,0.384,1,1,34
Ak1804,0,0,3,1.209,0.524,1,1,35
Ak1804,0,0,3,1.344,0.339,1,1,36
km0610,1,1,3,0.817,0.366,2,1,1
km0610,1,1,3,0.717,0.995,2,1,2
km0610,1,0,3,2.127,0.365,2,0,3
km0610,1,1,3,1.493,0.455,2,1,4
km0610,1,1,3,0.957,0.324,2,1,5
km0610,1,1,3,0.896,0.412,2,1,6
km0610,1,1,3,1.714,0.296,2,1,7
km0610,1,1,2,0.927,0.419,2,1,8
km0610,1,1,3,0.984,0.273,2,1,9
km0610,1,0,4,1.134,0.558,1,0,10
km0610,1,1,3,1.127,0.433,1,1,11
km0610,1,1,3,1.041,0.501,1,1,12
km0610,1,1,3,0.893,1.083,1,1,13
km0610,1,0,3,1.277,1.306,1,0,14
km0610,1,0,3,1.217,0.719,1,0,15
km0610,1,1,3,1.167,0.579,1,1,16
km0610,1,0,3,0.901,0.463,1,0,17
km0610,1,1,3,0.834,0.276,1,1,18
km0610,0,0,3,0.877,0.411,2,1,19
km0610,0,0,3,1.011,0.358,2,1,20
km0610,0,0,3,0.851,0.651,2,1,21
km0610,0,1,3,1.191,0.323,2,0,22
km0610,0,0,3,0.9,0.667,2,1,23
km0610,0,0,2,1.167,0.836,2,1,24
km0610,0,0,3,0.979,0.297,2,1,25
km0610,0,0,3,0.929,1.764,2,1,26
km0610,0,1,3,1.284,0.343,2,0,27
km0610,0,0,3,0.834,0.252,1,1,28
km0610,0,1,3,0.945,0.622,1,0,29
km0610,0,0,3,0.927,0.5,1,1,30
km0610,0,0,2,0.83,0.995,1,1,31
km0610,0,0,3,1.064,0.629,1,1,32
km0610,0,0,3,0.829,0.528,1,1,33
km0610,0,0,3,0.984,0.317,1,1,34
km0610,0,0,3,0.984,0.348,1,1,35
km0610,0,0,3,0.861,0.265,1,1,36
km0610,1,1,3,1.05,0.765,2,1,1
km0610,1,0,3,1.044,0.279,2,0,2
km0610,1,0,3,1.011,1.026,2,0,3
km0610,1,0,2,0.811,1.341,2,0,4
km0610,1,1,3,0.951,0.794,2,1,5
km0610,1,1,4,1.117,0.253,2,1,6
km0610,1,1,3,1.251,0.395,2,1,7
km0610,1,0,3,1.057,0.432,2,0,8
km0610,1,1,3,1.057,1.377,2,1,9
km0610,1,1,3,1.034,0.276,1,1,10
km0610,1,1,4,0.934,0.811,1,1,11
km0610,1,1,3,0.974,0.309,1,1,12
km0610,1,0,3,1,0.279,1,0,13
km0610,1,0,3,1.084,0.994,1,0,14
km0610,1,0,3,1.284,1.044,1,0,15
km0610,1,1,3,0.8,0.311,1,1,16
km0610,1,1,3,0.963,0.484,1,1,17
km0610,1,1,3,1.267,1.516,1,1,18
km0610,0,0,4,1.018,0.622,2,1,19
km0610,0,0,3,1.915,0.762,2,1,20
km0610,0,0,3,0.917,0.553,2,1,21
km0610,0,0,3,0.817,0.368,2,1,22
km0610,0,1,3,1.098,0.529,2,0,23
km0610,0,0,3,1.28,0.56,2,1,24
km0610,0,0,3,1.117,0.252,2,1,25
km0610,0,0,4,0.95,1.209,2,1,26
km0610,0,0,4,0.901,0.787,2,1,27
km0610,0,0,4,0.934,0.442,1,1,28
km0610,0,0,3,0.867,0.296,1,1,29
km0610,0,0,3,0.945,1.008,1,1,30
km0610,0,1,3,1.217,0.323,1,0,31
km0610,0,0,3,1.824,0.34,1,1,32
km0610,0,0,3,1.117,0.481,1,1,33
km0610,0,0,3,1.344,0.466,1,1,34
km0610,0,0,3,0.823,0.279,1,1,35
km0610,0,0,4,0.846,0.227,1,1,36
km0610,1,1,3,1.026,1.028,2,1,1
km0610,1,1,3,0.869,0.368,2,1,2
km0610,1,1,3,0.796,0.224,2,1,3
km0610,1,1,3,0.928,0.34,2,1,4
km0610,1,0,3,1.123,0.447,2,0,5
km0610,1,0,3,1.923,0.703,2,0,6
km0610,1,0,3,1.059,0.288,2,0,7
km0610,1,1,3,1.015,0.719,2,1,8
km0610,1,0,2,2.351,0.386,2,0,9
km0610,1,0,2,1.297,0.336,1,0,10
km0610,1,0,3,1.084,0.459,1,0,11
km0610,1,1,2,2.399,0.693,1,1,12
km0610,1,0,3,1.181,0.989,1,0,13
km0610,1,1,3,1.172,0.684,1,1,14
km0610,1,1,3,0.871,0.34,1,1,15
km0610,1,1,2,0.92,0.371,1,1,16
km0610,1,1,3,1.168,0.578,1,1,17
km0610,1,0,3,1.331,0.292,1,0,18
km0610,0,0,3,0.977,0.464,2,1,19
km0610,0,0,3,1.042,0.493,2,1,20
km0610,0,0,3,2.152,1.149,2,1,21
km0610,0,0,3,0.784,0.117,2,1,22
km0610,0,0,3,0.838,0.211,2,1,23
km0610,0,0,2,1.413,0.546,2,1,24
km0610,0,0,3,0.858,0.249,2,1,25
km0610,0,0,3,1.021,0.25,2,1,26
km0610,0,1,3,2.064,0.709,2,0,27
km0610,0,0,3,0.864,0.346,1,1,28
km0610,0,0,3,1.118,0.302,1,1,29
km0610,0,0,2,0.968,0.349,1,1,30
km0610,0,0,3,0.976,0.384,1,1,31
km0610,0,0,2,1.048,1.711,1,1,32
km0610,0,0,3,1.214,1.96,1,1,33
km0610,0,0,2,1.943,0.472,1,1,34
km0610,0,0,3,1.231,0.856,1,1,35
km0610,0,0,3,1.855,0.423,1,1,36
km0610,1,0,3,1.964,0.528,2,0,1
km0610,1,1,3,0.944,0.262,2,1,2
km0610,1,0,3,1.981,0.545,2,0,3
km0610,1,1,3,1.544,0.731,2,1,4
km0610,1,1,3,1.301,0.735,2,1,5
km0610,1,1,3,2.278,0.312,2,1,6
km0610,1,0,3,1.081,0.57,2,0,7
km0610,1,1,3,0.864,0.548,2,1,8
km0610,1,0,4,1.66,1.072,2,0,9
km0610,1,1,2,1.134,0.526,1,1,10
km0610,1,0,2,1.461,1.104,1,0,11
km0610,1,1,2,1.164,0.592,1,1,12
km0610,1,1,3,1.06,0.331,1,1,13
km0610,1,0,3,1.227,0.76,1,0,14
km0610,1,1,3,1.15,0.639,1,1,15
km0610,1,1,2,0.944,0.451,1,1,16
km0610,1,1,2,0.931,0.273,1,1,17
km0610,1,1,3,0.945,0.53,1,1,18
km0610,0,0,3,0.967,0.965,2,1,19
km0610,0,0,4,1.241,0.242,2,1,20
km0610,0,0,4,1.408,1.122,2,1,21
km0610,0,0,3,1.174,0.261,2,1,22
km0610,0,0,3,1.13,0.299,2,1,23
km0610,0,0,4,1.142,1.195,2,1,24
km0610,0,0,3,1.026,0.712,2,1,25
km0610,0,1,3,2.518,0.872,2,0,26
km0610,0,0,3,1.114,0.528,2,1,27
km0610,0,0,4,0.9,0.361,1,1,28
km0610,0,0,3,2.134,0.969,1,1,29
km0610,0,0,2,1.184,1.029,1,1,30
km0610,0,0,3,1.091,0.654,1,1,31
km0610,0,0,3,2.334,0.39,1,1,32
km0610,0,0,4,1.106,0.307,1,1,33
km0610,0,0,2,1.117,0.598,1,1,34
km0610,0,0,3,1.027,0.296,1,1,35
km0610,0,0,4,1.184,0.273,1,1,36
PD1907,1,1,4,1.198,0.401,2,1,1
PD1907,1,0,1,1.21,0.308,2,0,2
PD1907,1,0,2,1.144,0.578,2,0,3
PD1907,1,1,3,1.251,0.366,2,1,4
PD1907,1,0,2,1.343,0.36,2,0,5
PD1907,1,1,2,1.407,0.745,2,1,6
PD1907,1,1,4,1.093,0.426,2,1,7
PD1907,1,1,2,1.016,1.015,2,1,8
PD1907,1,1,2,1.178,0.439,2,1,9
PD1907,1,1,4,1.777,0.521,1,1,10
PD1907,1,0,4,1.365,0.578,1,0,11
PD1907,1,1,2,1.969,0.465,1,1,12
PD1907,1,1,1,1.188,0.496,1,1,13
PD1907,1,0,1,1.304,1.146,1,0,14
PD1907,1,0,1,2.55,0.367,1,0,15
PD1907,1,0,4,1.565,0.32,1,0,16
PD1907,1,1,2,1.168,0.916,1,1,17
PD1907,1,1,1,1.362,0.304,1,1,18
PD1907,0,0,3,1.131,0.418,2,1,19
PD1907,0,0,3,1.115,0.369,2,1,20
PD1907,0,0,2,1.542,0.577,2,1,21
PD1907,0,0,4,1.218,0.339,2,1,22
PD1907,0,0,2,1.187,1.113,2,1,23
PD1907,0,0,4,1.113,0.498,2,1,24
PD1907,0,1,2,1.397,0.487,2,0,25
PD1907,0,1,4,1.514,0.46,2,0,26
PD1907,0,0,3,1.397,0.569,2,1,27
PD1907,0,0,4,1.266,0.395,1,1,28
PD1907,0,0,3,1.524,0.39,1,1,29
PD1907,0,1,4,1.083,0.333,1,0,30
PD1907,0,1,3,2.099,0.455,1,0,31
PD1907,0,0,NaN,2.805,NaN,1,1,32
PD1907,0,0,2,1.227,0.289,1,1,33
PD1907,0,0,2,1.273,0.51,1,1,34
PD1907,0,0,2,1.475,1.417,1,1,35
PD1907,0,1,3,2.298,0.535,1,0,36
PD1907,1,1,1,1.416,0.335,2,1,1
PD1907,1,0,2,1.678,0.407,2,0,2
PD1907,1,0,2,1.033,0.449,2,0,3
PD1907,1,0,1,1.45,0.668,2,0,4
PD1907,1,1,2,1.031,0.386,2,1,5
PD1907,1,1,2,1.284,0.506,2,1,6
PD1907,1,1,1,1.065,0.785,2,1,7
PD1907,1,1,4,1.78,0.305,2,1,8
PD1907,1,1,4,1.405,0.303,2,1,9
PD1907,1,1,2,1.764,0.436,1,1,10
PD1907,1,0,2,1.081,0.435,1,0,11
PD1907,1,1,2,1.394,0.345,1,1,12
PD1907,1,1,1,1.206,0.337,1,1,13
PD1907,1,1,2,1.207,0.678,1,1,14
PD1907,1,1,4,1.262,0.306,1,1,15
PD1907,1,1,1,1.131,1.519,1,1,16
PD1907,1,0,1,2.46,0.772,1,0,17
PD1907,1,1,3,1.113,0.353,1,1,18
PD1907,0,0,3,1.337,0.354,2,1,19
PD1907,0,0,2,1.494,0.313,2,1,20
PD1907,0,0,NaN,1.327,NaN,2,1,21
PD1907,0,0,3,1.146,0.353,2,1,22
PD1907,0,0,2,1.74,0.327,2,1,23
PD1907,0,0,4,1.335,0.248,2,1,24
PD1907,0,0,4,1.361,0.316,2,1,25
PD1907,0,0,4,1.187,0.294,2,1,26
PD1907,0,0,1,1.089,0.346,2,1,27
PD1907,0,0,1,1.266,0.417,1,1,28
PD1907,0,NaN,3,NaN,0.561,1,0,29
PD1907,0,0,4,1.158,0.458,1,1,30
PD1907,0,0,3,1.296,0.531,1,1,31
PD1907,0,0,2,1.218,0.382,1,1,32
PD1907,0,0,2,1.23,0.32,1,1,33
PD1907,0,0,4,1.195,0.354,1,1,34
PD1907,0,0,3,1.741,1.076,1,1,35
PD1907,0,0,3,1.425,0.307,1,1,36
PD1907,1,0,2,1.772,0.762,2,0,1
PD1907,1,1,4,1.128,0.722,2,1,2
PD1907,1,1,4,1.411,0.363,2,1,3
PD1907,1,1,2,1.214,0.42,2,1,4
PD1907,1,1,2,1.039,0.478,2,1,5
PD1907,1,1,2,1.207,0.411,2,1,6
PD1907,1,1,4,0.943,0.382,2,1,7
PD1907,1,1,3,1.017,0.481,2,1,8
PD1907,1,1,1,1.225,0.313,2,1,9
PD1907,1,0,3,1.3,0.482,1,0,10
PD1907,1,1,2,1.257,0.599,1,1,11
PD1907,1,1,4,1.056,0.337,1,1,12
PD1907,1,1,2,0.958,0.334,1,1,13
PD1907,1,0,4,1.326,0.14,1,0,14
PD1907,1,1,2,1.287,0.429,1,1,15
PD1907,1,0,1,1.078,0.334,1,0,16
PD1907,1,1,2,1.045,0.32,1,1,17
PD1907,1,0,2,1.228,0.513,1,0,18
PD1907,0,0,2,1.366,0.433,2,1,19
PD1907,0,0,2,1.239,1.412,2,1,20
PD1907,0,0,3,1.281,0.519,2,1,21
PD1907,0,0,1,1.242,0.792,2,1,22
PD1907,0,0,3,1.483,0.501,2,1,23
PD1907,0,0,4,1.076,0.351,2,1,24
PD1907,0,0,3,0.995,1.627,2,1,25
PD1907,0,1,1,1.361,0.605,2,0,26
PD1907,0,1,2,1.398,0.646,2,0,27
PD1907,0,0,NaN,1.314,NaN,1,1,28
PD1907,0,0,3,0.996,0.33,1,1,29
PD1907,0,0,2,0.989,0.419,1,1,30
PD1907,0,0,3,1.301,0.767,1,1,31
PD1907,0,1,3,1.96,0.524,1,0,32
PD1907,0,0,2,1.332,0.668,1,1,33
PD1907,0,0,3,2.444,1.224,1,1,34
PD1907,0,0,4,1.316,0.693,1,1,35
PD1907,0,0,2,1.004,0.762,1,1,36
PD1907,1,1,2,1.226,0.972,2,1,1
PD1907,1,1,3,1.048,0.313,2,1,2
PD1907,1,1,3,0.81,0.312,2,1,3
PD1907,1,1,3,1.056,0.34,2,1,4
PD1907,1,1,4,1.085,0.24,2,1,5
PD1907,1,1,4,1.013,0.203,2,1,6
PD1907,1,0,3,1.001,0.29,2,0,7
PD1907,1,1,2,1.33,0.174,2,1,8
PD1907,1,0,3,1.375,0.258,2,0,9
PD1907,1,0,4,1.314,0.403,1,0,10
PD1907,1,1,4,0.97,0.406,1,1,11
PD1907,1,1,4,0.981,0.368,1,1,12
PD1907,1,1,2,0.966,0.313,1,1,13
PD1907,1,1,4,1.721,0.629,1,1,14
PD1907,1,1,2,1.621,0.386,1,1,15
PD1907,1,0,2,1.3,0.384,1,0,16
PD1907,1,1,3,1.025,0.293,1,1,17
PD1907,1,1,4,1.04,0.244,1,1,18
PD1907,0,0,1,1.012,0.387,2,1,19
PD1907,0,0,2,1.072,0.379,2,1,20
PD1907,0,0,4,1.046,0.338,2,1,21
PD1907,0,0,2,0.915,0.318,2,1,22
PD1907,0,0,1,0.944,0.273,2,1,23
PD1907,0,1,2,1.56,0.606,2,0,24
PD1907,0,0,1,0.992,0.672,2,1,25
PD1907,0,0,4,0.959,0.31,2,1,26
PD1907,0,0,3,0.955,0.423,2,1,27
PD1907,0,1,4,1.575,0.376,1,0,28
PD1907,0,0,2,1.313,0.437,1,1,29
PD1907,0,0,1,0.986,0.363,1,1,30
PD1907,0,0,4,0.922,0.278,1,1,31
PD1907,0,0,3,0.896,0.351,1,1,32
PD1907,0,0,1,1.027,0.175,1,1,33
PD1907,0,0,3,1.081,0.354,1,1,34
PD1907,0,0,2,1.11,0.312,1,1,35
PD1907,0,1,2,1.03,0.327,1,0,36
st0704,1,0,2,1.334,1.084,1,0,1
st0704,1,1,2,1.034,0.75,2,1,2
st0704,1,0,2,1.434,1.067,1,0,3
st0704,1,0,4,1.251,1.034,2,0,4
st0704,1,0,4,1.017,1,1,0,5
st0704,0,0,3,1.048,0.75,1,1,6
st0704,0,0,4,1.068,0.967,1,1,7
st0704,0,0,4,0.901,0.784,1,1,8
st0704,0,0,4,1.184,0.784,1,1,9
st0704,0,0,4,0.917,0.634,2,1,10
st0704,0,0,4,0.967,0.617,2,1,11
st0704,0,0,4,1.35,0.067,2,1,12
st0704,1,1,4,1.098,0.617,2,1,13
st0704,1,0,4,1.184,0.4,1,0,14
st0704,1,1,4,0.867,0.5,1,1,15
st0704,0,0,3,1.017,0.984,1,1,16
st0704,0,0,3,1.017,0.584,2,1,17
st0704,0,0,3,0.934,0.634,2,1,18
st0704,1,1,3,0.867,0.434,1,1,19
st0704,1,0,3,0.934,0.3,1,0,20
st0704,0,0,3,1.017,0.5,2,1,21
st0704,0,0,2,1.384,0.517,1,1,22
st0704,1,0,2,1.234,0.7,2,0,23
st0704,1,0,2,1.418,0.55,1,0,24
st0704,0,0,2,1.101,0.4,2,1,25
st0704,0,0,2,1,0.334,1,1,26
st0704,1,1,3,0.951,0.434,2,1,27
st0704,0,0,3,1.051,0.434,2,1,28
st0704,0,0,3,1.051,0.3,1,1,29
st0704,0,0,3,0.95,0.534,2,1,30
st0704,1,1,3,1.15,0.3,2,1,31
st0704,1,0,3,1.134,0.167,1,0,32
st0704,1,1,3,0.95,0.384,2,1,33
st0704,1,1,3,1.401,0.417,2,1,34
st0704,0,0,3,0.9,0.4,1,1,35
st0704,1,0,2,1.401,1.05,2,0,36
AU0903,1,1,2,1.427,0.894,2,1,1
AU0903,1,1,2,1.822,1.137,2,1,2
AU0903,1,0,2,1.4,1.369,2,0,3
AU0903,1,1,3,1.082,0.751,2,1,4
AU0903,1,1,3,1.344,1.058,2,1,5
AU0903,1,0,2,1.01,0.67,2,0,6
AU0903,1,1,3,1.146,0.952,2,1,7
AU0903,1,1,3,1.197,1.589,2,1,8
AU0903,1,0,3,2.275,1.126,2,0,9
AU0903,1,1,4,1.198,1.134,1,1,10
AU0903,1,1,2,1.193,1.996,1,1,11
AU0903,1,0,2,1.191,1.675,1,0,12
AU0903,1,1,3,1.05,0.846,1,1,13
AU0903,1,1,3,1.279,0.966,1,1,14
AU0903,1,1,2,1.423,1.161,1,1,15
AU0903,1,0,3,1.582,1.402,1,0,16
AU0903,1,0,2,1.445,0.705,1,0,17
AU0903,1,0,2,1.301,0.72,1,0,18
AU0903,0,1,2,1.11,0.653,2,0,19
AU0903,0,0,3,1.213,0.893,2,1,20
AU0903,0,0,2,1.467,2.701,2,1,21
AU0903,0,1,3,1.061,0.844,2,0,22
AU0903,0,1,3,1.179,0.704,2,0,23
AU0903,0,1,3,1.291,1.47,2,0,24
AU0903,0,1,3,1.122,0.862,2,0,25
AU0903,0,0,3,1.186,0.987,2,1,26
AU0903,0,0,2,1.543,1.189,2,1,27
AU0903,0,0,4,1.136,1.369,1,1,28
AU0903,0,0,2,1.486,1.155,1,1,29
AU0903,0,1,2,1.308,1.035,1,0,30
AU0903,0,1,2,1.261,0.797,1,0,31
AU0903,0,1,2,2.092,0.592,1,0,32
AU0903,0,0,3,1.102,1.33,1,1,33
AU0903,0,0,2,1.389,0.817,1,1,34
AU0903,0,0,3,1.347,1.281,1,1,35
AU0903,0,1,3,2.817,2.166,1,0,36
AU0903,1,1,3,1.293,0.405,2,1,1
AU0903,1,1,2,1.577,0.474,2,1,2
AU0903,1,1,4,1.029,0.62,2,1,3
AU0903,1,1,4,1.076,0.484,2,1,4
AU0903,1,1,4,1.199,0.546,2,1,5
AU0903,1,0,2,1.491,1.243,2,0,6
AU0903,1,1,2,1.595,0.87,2,1,7
AU0903,1,1,2,1.196,0.601,2,1,8
AU0903,1,1,2,1.264,0.714,2,1,9
AU0903,1,1,4,1.482,1.168,1,1,10
AU0903,1,0,2,1.585,0.468,1,0,11
AU0903,1,1,2,1.075,1.257,1,1,12
AU0903,1,1,2,1.129,0.654,1,1,13
AU0903,1,1,2,1.169,0.555,1,1,14
AU0903,1,1,2,2.21,0.904,1,1,15
AU0903,1,1,2,1.181,0.553,1,1,16
AU0903,1,0,3,1.647,1.184,1,0,17
AU0903,1,1,2,1.117,1.23,1,1,18
AU0903,0,1,2,1.301,1.667,2,0,19
AU0903,0,0,2,2.32,1.116,2,1,20
AU0903,0,0,4,1.061,1.203,2,1,21
AU0903,0,0,4,1.248,0.918,2,1,22
AU0903,0,0,3,1.451,1.029,2,1,23
AU0903,0,0,3,1.021,0.73,2,1,24
AU0903,0,0,2,1.212,0.483,2,1,25
AU0903,0,0,2,1.529,1.104,2,1,26
AU0903,0,0,3,1.034,2.182,2,1,27
AU0903,0,0,3,1.355,0.857,1,1,28
AU0903,0,0,2,1.24,1.906,1,1,29
AU0903,0,0,3,1.208,1.903,1,1,30
AU0903,0,0,2,1.059,0.76,1,1,31
AU0903,0,0,2,1.283,0.891,1,1,32
AU0903,0,0,2,1.24,0.7,1,1,33
AU0903,0,0,2,1.371,1.154,1,1,34
AU0903,0,0,2,1.002,0.676,1,1,35
AU0903,0,0,2,1.234,1.311,1,1,36
AU0903,1,0,2,2.053,0.431,2,0,1
AU0903,1,1,2,1.291,0.559,2,1,2
AU0903,1,1,3,2.837,0.528,2,1,3
AU0903,1,1,3,1.193,1.04,2,1,4
AU0903,1,0,2,1.029,0.403,2,0,5
AU0903,1,1,2,0.986,0.439,2,1,6
AU0903,1,0,4,1.249,1.061,2,0,7
AU0903,1,1,2,1.013,0.63,2,1,8
AU0903,1,1,2,0.981,0.733,2,1,9
AU0903,1,1,4,1.082,1.067,1,1,10
AU0903,1,1,3,1.028,0.843,1,1,11
AU0903,1,0,3,1.407,0.628,1,0,12
AU0903,1,1,3,1.122,0.945,1,1,13
AU0903,1,1,3,1.233,0.499,1,1,14
AU0903,1,1,2,0.96,0.873,1,1,15
AU0903,1,1,2,1.234,0.391,1,1,16
AU0903,1,0,2,0.918,0.682,1,0,17
AU0903,1,1,2,1.745,0.489,1,1,18
AU0903,0,0,3,1.166,1.011,2,1,19
AU0903,0,0,3,1.944,0.822,2,1,20
AU0903,0,1,2,1.227,0.607,2,0,21
AU0903,0,0,2,1.297,0.82,2,1,22
AU0903,0,1,,2.375,0,2,0,23
AU0903,0,0,4,1.144,1.317,2,1,24
AU0903,0,0,2,1.169,0.386,2,1,25
AU0903,0,0,2,1.229,0.989,2,1,26
AU0903,0,0,2,1.883,0.482,2,1,27
AU0903,0,0,2,1.178,0.489,1,1,28
AU0903,0,0,4,1.112,2.053,1,1,29
AU0903,0,0,2,1.235,0.632,1,1,30
AU0903,0,0,2,1.236,1.046,1,1,31
AU0903,0,0,2,1.33,0.387,1,1,32
AU0903,0,0,2,1.292,0.405,1,1,33
AU0903,0,1,3,1.237,1.382,1,0,34
AU0903,0,0,3,1.09,1.251,1,1,35
AU0903,0,0,3,1.294,1.058,1,1,36
AU0903,1,1,2,1.172,1.211,2,1,1
AU0903,1,1,3,1.07,0.363,2,1,2
AU0903,1,1,3,1.187,0.44,2,1,3
AU0903,1,0,3,1.676,0.873,2,0,4
AU0903,1,1,3,1.17,0.905,2,1,5
AU0903,1,1,4,0.988,0.978,2,1,6
AU0903,1,0,2,0.957,0.67,2,0,7
AU0903,1,1,2,1.035,0.648,2,1,8
AU0903,1,1,3,1.043,0.556,2,1,9
AU0903,1,1,4,0.845,0.738,1,1,10
AU0903,1,1,2,0.909,0.778,1,1,11
AU0903,1,1,2,1.257,0.477,1,1,12
AU0903,1,1,3,1.425,0.469,1,1,13
AU0903,1,0,2,1.25,1.93,1,0,14
AU0903,1,1,3,1.026,0.5,1,1,15
AU0903,1,1,2,1.434,0.562,1,1,16
AU0903,1,1,4,0.987,0.697,1,1,17
AU0903,1,1,3,1.186,0.795,1,1,18
AU0903,0,0,3,1.313,1.742,2,1,19
AU0903,0,0,3,1.131,0.436,2,1,20
AU0903,0,0,3,0.988,0.695,2,1,21
AU0903,0,0,3,1.05,0.35,2,1,22
AU0903,0,0,3,1.142,0.406,2,1,23
AU0903,0,0,2,1.04,0.592,2,1,24
AU0903,0,0,2,1.026,0.595,2,1,25
AU0903,0,1,3,1.18,0.437,2,0,26
AU0903,0,0,2,1.265,0.486,2,1,27
AU0903,0,0,2,1.032,0.707,1,1,28
AU0903,0,0,2,1.454,0.609,1,1,29
AU0903,0,0,3,1.468,0.593,1,1,30
AU0903,0,0,2,0.915,1.151,1,1,31
AU0903,0,0,2,0.963,0.603,1,1,32
AU0903,0,1,4,1.318,1.056,1,0,33
AU0903,0,0,3,0.958,1.892,1,1,34
AU0903,0,0,3,1.022,0.479,1,1,35
AU0903,0,0,3,0.868,0.8,1,1,36
AU0903,1,1,2,1.277,0.44,2,1,1
AU0903,1,1,3,1.632,0.394,2,1,2
AU0903,1,1,4,0.952,0.431,2,1,3
AU0903,1,1,4,1.178,2.016,2,1,4
AU0903,1,0,3,1.083,0.528,2,0,5
AU0903,1,1,3,1.744,0.643,2,1,6
AU0903,1,0,3,1.443,1.741,2,0,7
AU0903,1,1,4,0.991,0.442,2,1,8
AU0903,1,1,3,1.074,0.643,2,1,9
AU0903,1,1,3,1.076,0.442,1,1,10
AU0903,1,1,4,1.108,0.666,1,1,11
AU0903,1,1,3,1.046,0.621,1,1,12
AU0903,1,1,4,0.892,0.742,1,1,13
AU0903,1,1,3,1.085,0.814,1,1,14
AU0903,1,1,2,1.271,0.43,1,1,15
AU0903,1,0,3,0.968,0.465,1,0,16
AU0903,1,1,2,1.116,0.434,1,1,17
AU0903,1,0,4,2.445,0.844,1,0,18
AU0903,0,0,4,1.136,0.397,2,1,19
AU0903,0,0,4,1.119,0.398,2,1,20
AU0903,0,0,4,1.026,0.473,2,1,21
AU0903,0,0,4,1.095,0.463,2,1,22
AU0903,0,0,4,1.188,0.575,2,1,23
AU0903,0,0,4,0.984,0.466,2,1,24
AU0903,0,0,3,1.5,0.35,2,1,25
AU0903,0,0,3,1.094,0.639,2,1,26
AU0903,0,0,3,0.941,0.841,2,1,27
AU0903,0,0,3,1.497,0.576,1,1,28
AU0903,0,0,3,1.23,0.521,1,1,29
AU0903,0,1,3,1.12,1.264,1,0,30
AU0903,0,0,3,0.908,0.475,1,1,31
AU0903,0,1,3,0.958,1.636,1,0,32
AU0903,0,0,3,1.03,0.636,1,1,33
AU0903,0,0,2,0.989,0.409,1,1,34
AU0903,0,0,2,1.026,0.542,1,1,35
AU0903,0,0,3,0.991,0.543,1,1,36
AU0903,1,1,4,0.959,0.758,2,1,1
AU0903,1,1,4,1.312,0.984,2,1,2
AU0903,1,1,3,0.98,0.421,2,1,3
AU0903,1,1,4,1.026,0.485,2,1,4
AU0903,1,1,4,0.922,0.662,2,1,5
AU0903,1,0,3,1.44,0.394,2,0,6
AU0903,1,1,2,2.015,0.962,2,1,7
AU0903,1,1,4,0.919,0.43,2,1,8
AU0903,1,1,4,0.969,0.371,2,1,9
AU0903,1,1,3,0.939,0.393,1,1,10
AU0903,1,0,2,1.305,1.124,1,0,11
AU0903,1,1,4,1.471,0.83,1,1,12
AU0903,1,1,3,1.001,0.649,1,1,13
AU0903,1,1,4,0.828,0.965,1,1,14
AU0903,1,0,3,1.342,0.442,1,0,15
AU0903,1,1,2,1.164,0.702,1,1,16
AU0903,1,1,3,0.975,0.508,1,1,17
AU0903,1,1,2,1.662,0.664,1,1,18
AU0903,0,0,4,0.886,0.714,2,1,19
AU0903,0,1,4,1.614,0.902,2,0,20
AU0903,0,0,3,1.474,0.327,2,1,21
AU0903,0,1,3,0.939,0.392,2,0,22
AU0903,0,0,3,0.959,0.374,2,1,23
AU0903,0,0,3,0.921,0.512,2,1,24
AU0903,0,0,3,0.89,0.627,2,1,25
AU0903,0,0,4,0.903,0.431,2,1,26
AU0903,0,0,4,1.163,0.387,2,1,27
AU0903,0,0,4,1.03,1.262,1,1,28
AU0903,0,0,3,0.926,0.372,1,1,29
AU0903,0,0,3,1.27,0.431,1,1,30
AU0903,0,0,3,0.889,0.944,1,1,31
AU0903,0,0,3,0.899,0.418,1,1,32
AU0903,0,0,2,1.012,1.512,1,1,33
AU0903,0,0,3,1.25,0.644,1,1,34
AU0903,0,0,3,1.159,0.689,1,1,35
AU0903,0,0,2,1.242,1.121,1,1,36
do2205,1,1,4,1.018,2.578,2,1,1
do2205,1,1,4,0.801,0.3,2,1,2
do2205,1,0,3,0,0.234,2,0,3
do2205,1,1,3,0.867,0.417,2,1,4
do2205,1,1,4,1,0.484,2,1,5
do2205,1,1,2,1,0.767,2,1,6
do2205,1,1,4,0.817,0.267,2,1,7
do2205,1,1,3,0.717,0.35,2,1,8
do2205,1,1,4,0.85,0.067,2,1,9
do2205,1,1,4,0.784,0.367,1,1,10
do2205,1,1,4,0.817,0.3,1,1,11
do2205,1,1,3,0.817,0.934,1,1,12
do2205,1,1,3,0.851,1.734,1,1,13
do2205,1,1,3,0.984,0.35,1,1,14
do2205,1,1,2,0.784,0.117,1,1,15
do2205,1,1,4,0.801,1.317,1,1,16
do2205,1,1,3,0.834,1.15,1,1,17
do2205,1,1,3,0.834,0.417,1,1,18
do2205,0,0,4,1,0.767,2,1,19
do2205,0,1,4,1.401,0.2,2,0,20
do2205,0,0,4,0.934,0.217,2,1,21
do2205,0,1,2,1.351,0.65,2,0,22
do2205,0,0,4,0.884,0.717,2,1,23
do2205,0,1,3,1.067,0.967,2,0,24
do2205,0,0,3,0.834,0.517,2,1,25
do2205,0,0,3,0.867,0.384,2,1,26
do2205,0,0,4,0.95,0.25,2,1,27
do2205,0,0,2,0.85,0.334,1,1,28
do2205,0,1,3,2.118,0.334,1,0,29
do2205,0,0,3,1.084,0.567,1,1,30
do2205,0,0,2,0.95,0.734,1,1,31
do2205,0,0,2,0.8,0.417,1,1,32
do2205,0,1,4,1.134,0.884,1,0,33
do2205,0,0,4,0.934,0.567,1,1,34
do2205,0,1,4,0.984,1.017,1,0,35
do2205,0,0,3,1.3,0.467,1,1,36
do2205,1,1,4,1.401,0.65,2,1,1
do2205,1,1,3,0.851,0.117,2,1,2
do2205,1,1,3,0.667,0.034,2,1,3
do2205,1,1,3,0.784,0.134,2,1,4
do2205,1,1,4,0.801,0.25,2,1,5
do2205,1,1,3,0.784,0.517,2,1,6
do2205,1,1,4,1.151,1.329,2,1,7
do2205,1,1,4,0.801,0.6,2,1,8
do2205,1,1,3,1.117,0.35,2,1,9
do2205,1,1,3,1.23,0.3,1,1,10
do2205,1,1,3,1.234,0.634,1,1,11
do2205,1,1,3,1.084,1.25,1,1,12
do2205,1,1,2,0.834,0.734,1,1,13
do2205,1,1,3,0.834,0.267,1,1,14
do2205,1,1,3,0.867,1.134,1,1,15
do2205,1,1,3,0.817,0.217,1,1,16
do2205,1,1,3,0.784,0.917,1,1,17
do2205,1,1,3,0.881,0.317,1,1,18
do2205,0,1,3,1.9,0.417,2,0,19
do2205,0,0,3,1.301,0.467,2,1,20
do2205,0,0,3,2.401,0.367,2,1,21
do2205,0,0,3,2.551,0.3,2,1,22
do2205,0,1,4,1.484,0.134,2,0,23
do2205,0,0,4,1.567,0.334,2,1,24
do2205,0,0,4,1.017,0.25,2,1,25
do2205,0,0,3,1.118,0.534,2,1,26
do2205,0,1,4,1.584,0.267,2,0,27
do2205,0,0,3,0.967,0.634,1,1,28
do2205,0,0,4,0.834,0.1,1,1,29
do2205,0,1,3,1.217,0.367,1,0,30
do2205,0,0,3,1.1,0.267,1,1,31
do2205,0,0,3,1.05,1.475,1,1,32
do2205,0,1,3,1.051,0.85,1,0,33
do2205,0,0,3,1.068,0.1,1,1,34
do2205,0,1,3,0.897,0.367,1,0,35
do2205,0,0,3,0.901,0.35,1,1,36
do2205,1,1,4,2.717,0.384,2,1,1
do2205,1,1,4,0.817,0.05,2,1,2
do2205,1,1,4,0.95,0.234,2,1,3
do2205,1,1,4,0.801,0.317,2,1,4
do2205,1,1,4,1.585,0.25,2,1,5
do2205,1,1,3,0.867,0.634,2,1,6
do2205,1,1,3,0.901,0.334,2,1,7
do2205,1,1,3,1.768,0.334,2,1,8
do2205,1,1,4,1.1,0.817,2,1,9
do2205,1,1,4,0.767,0.3,1,1,10
do2205,1,1,3,0.851,0.25,1,1,11
do2205,1,1,2,0.901,1.067,1,1,12
do2205,1,1,3,2.034,0.25,1,1,13
do2205,1,1,3,0.867,1.084,1,1,14
do2205,1,1,3,0.817,0.317,1,1,15
do2205,1,1,3,0.967,0.367,1,1,16
do2205,1,1,3,0.801,0.7,1,1,17
do2205,1,1,3,0.784,0.317,1,1,18
do2205,0,0,4,0.934,0.684,2,1,19
do2205,0,0,4,0.867,0.717,2,1,20
do2205,0,0,4,0.85,0.017,2,1,21
do2205,0,0,4,0.901,0.184,2,1,22
do2205,0,0,4,0.917,0.067,2,1,23
do2205,0,0,3,0.784,0.35,2,1,24
do2205,0,0,4,0.8,0.267,2,1,25
do2205,0,0,4,0.9,0.317,2,1,26
do2205,0,1,3,1.367,0.133,2,0,27
do2205,0,0,3,0.917,0.25,1,1,28
do2205,0,0,3,1.151,0.984,1,1,29
do2205,0,0,3,0.851,0.35,1,1,30
do2205,0,0,3,0.884,0.117,1,1,31
do2205,0,0,3,1.618,0.7,1,1,32
do2205,0,1,3,2.184,0.05,1,0,33
do2205,0,0,3,1.084,0.267,1,1,34
do2205,0,0,4,1.001,0.267,1,1,35
do2205,0,0,4,1.017,0.317,1,1,36
do2205,1,1,4,1.15,0.1,2,1,1
do2205,1,1,4,0.767,0.317,2,1,2
do2205,1,1,3,0.834,0.317,2,1,3
do2205,1,1,4,1.067,0.517,2,1,4
do2205,1,1,2,0.9,0.184,2,1,5
do2205,1,1,3,0.717,0.15,2,1,6
do2205,1,1,4,0.801,0.234,2,1,7
do2205,1,1,4,0.814,0.217,2,1,8
do2205,1,1,4,0.7,0.167,2,1,9
do2205,1,1,2,0.968,0.4,1,1,10
do2205,1,1,3,0.784,0.234,1,1,11
do2205,1,1,2,0.785,0.1,1,1,12
do2205,1,1,4,0.801,0.984,1,1,13
do2205,1,1,4,0.767,0.017,1,1,14
do2205,1,1,4,0.767,0.2,1,1,15
do2205,1,1,4,0.684,0.301,1,1,16
do2205,1,1,3,0.717,0.134,1,1,17
do2205,1,0,3,1.15,0.283,1,0,18
do2205,0,0,4,0.884,0.1,2,1,19
do2205,0,0,4,0.934,0.167,2,1,20
do2205,0,1,2,1.35,0.884,2,0,21
do2205,0,0,3,1.8,0.2,2,1,22
do2205,0,0,2,0.817,0.184,2,1,23
do2205,0,0,4,1.101,0.05,2,1,24
do2205,0,0,4,1.134,0.2,2,1,25
do2205,0,0,4,0.834,0.25,2,1,26
do2205,0,0,4,0.867,0.234,2,1,27
do2205,0,0,4,0.9,0.067,1,1,28
do2205,0,0,3,0.784,0.5,1,1,29
do2205,0,0,4,0.834,0.2,1,1,30
do2205,0,0,3,0.8,0.367,1,1,31
do2205,0,0,4,0.8,0.234,1,1,32
do2205,0,0,3,0.767,0.55,1,1,33
do2205,0,0,4,1.318,0.4,1,1,34
do2205,0,0,3,0.984,0.201,1,1,35
do2205,0,0,2,0.8,0.384,1,1,36
do2205,1,1,4,0.634,0.134,2,1,1
do2205,1,1,2,0.717,0.234,2,1,2
do2205,1,1,4,1.084,0.134,2,1,3
do2205,1,1,4,0.767,0.334,2,1,4
do2205,1,1,4,0.817,1.05,2,1,5
do2205,1,1,3,1.434,0.234,2,1,6
do2205,1,0,2,1.401,0.684,2,0,7
do2205,1,1,3,0.701,0.45,2,1,8
do2205,1,1,3,0.7,0.184,2,1,9
do2205,1,1,2,0.717,0.7,1,1,10
do2205,1,1,3,0.667,0.45,1,1,11
do2205,1,1,3,0.734,0.1,1,1,12
do2205,1,1,2,0.717,0.517,1,1,13
do2205,1,1,2,0.718,0.1,1,1,14
do2205,1,1,3,0.767,0.117,1,1,15
do2205,1,1,3,0.617,0.2,1,1,16
do2205,1,1,3,0.65,0.217,1,1,17
do2205,1,1,4,0.65,0.334,1,1,18
do2205,0,0,4,1.518,0.134,2,1,19
do2205,0,0,4,0.734,0.234,2,1,20
do2205,0,0,4,0.867,0.267,2,1,21
do2205,0,1,3,2.017,0.25,2,0,22
do2205,0,0,4,1.234,0.084,2,1,23
do2205,0,0,3,0.967,0.284,2,1,24
do2205,0,0,4,0.767,0.067,2,1,25
do2205,0,0,3,0.717,0.234,2,1,26
do2205,0,0,3,0.734,0.234,2,1,27
do2205,0,0,4,0.767,0.234,1,1,28
do2205,0,0,2,0.8,0.3,1,1,29
do2205,0,0,2,1.167,0.234,1,1,30
do2205,0,1,4,0.667,0.084,1,0,31
do2205,0,1,3,1.867,1.117,1,0,32
do2205,0,0,2,0.834,0.651,1,1,33
do2205,0,0,3,1.417,0.184,1,1,34
do2205,0,0,3,0.834,0.45,1,1,35
do2205,0,0,3,0.901,0.35,1,1,36
do2205,1,1,4,1.317,0.35,2,1,1
do2205,1,1,3,0.717,0.3,2,1,2
do2205,1,1,4,0.617,0.05,2,1,3
do2205,1,0,3,0.884,0.434,2,0,4
do2205,1,1,4,1.484,0.367,2,1,5
do2205,1,1,4,0.784,0.067,2,1,6
do2205,1,1,3,0.6,0.184,2,1,7
do2205,1,1,4,0.734,0.034,2,1,8
do2205,1,1,3,1.034,0.467,2,1,9
do2205,1,1,4,0.917,0.201,1,1,10
do2205,1,1,2,0.783,0.384,1,1,11
do2205,1,1,3,1.284,0.234,1,1,12
do2205,1,1,4,1.217,0.367,1,1,13
do2205,1,1,2,0.784,0.234,1,1,14
do2205,1,1,3,1.067,0.334,1,1,15
do2205,1,1,3,0.701,0.3,1,1,16
do2205,1,1,3,0.734,0.284,1,1,17
do2205,1,1,3,0.867,0.267,1,1,18
do2205,0,0,4,0.984,0.234,2,1,19
do2205,0,0,4,0.967,0.3,2,1,20
do2205,0,0,3,0.7,0.517,2,1,21
do2205,0,0,4,1.051,0.234,2,1,22
do2205,0,0,4,0.784,0.167,2,1,23
do2205,0,0,3,0.834,0.35,2,1,24
do2205,0,0,4,0.717,0.034,2,1,25
do2205,0,0,4,1.651,0.167,2,1,26
do2205,0,0,4,0.784,0.133,2,1,27
do2205,0,0,2,0.834,0.25,1,1,28
do2205,0,0,4,0.984,0.584,1,1,29
do2205,0,0,3,0.7,0.234,1,1,30
do2205,0,0,3,0.784,0.1,1,1,31
do2205,0,0,2,0.717,0.2,1,1,32
do2205,0,0,2,1.134,0.384,1,1,33
do2205,0,0,3,1.717,0.184,1,1,34
do2205,0,0,2,0.801,0.634,1,1,35
do2205,0,0,2,0.784,0.284,1,1,36
IJ0305,1,0,4,2.537,0.397,2,0,1
IJ0305,1,1,4,1.197,0.486,2,1,2
IJ0305,1,1,4,0.924,0.299,2,1,3
IJ0305,1,1,4,1.04,0.325,2,1,4
IJ0305,1,1,3,2.441,0.542,2,1,5
IJ0305,1,1,4,2.59,0.394,2,1,6
IJ0305,1,1,3,1.012,0.388,2,1,7
IJ0305,1,1,4,1.207,0.372,2,1,8
IJ0305,1,1,4,0.955,0.328,2,1,9
IJ0305,1,1,3,2.076,0.372,1,1,10
IJ0305,1,1,4,1.434,0.503,1,1,11
IJ0305,1,1,4,1.065,0.392,1,1,12
IJ0305,1,1,4,1.082,0.353,1,1,13
IJ0305,1,1,4,1.088,0.397,1,1,14
IJ0305,1,1,4,1.114,0.368,1,1,15
IJ0305,1,1,4,1.233,2.35,1,1,16
IJ0305,1,1,4,1.482,0.351,1,1,17
IJ0305,1,1,4,1.539,0.484,1,1,18
IJ0305,0,0,4,1.33,0.353,2,1,19
IJ0305,0,0,4,1.055,0.344,2,1,20
IJ0305,0,1,4,1.036,0.397,2,0,21
IJ0305,0,0,NaN,1.683,NaN,2,1,22
IJ0305,0,0,4,1.28,0.514,2,1,23
IJ0305,0,0,4,1.303,0.366,2,1,24
IJ0305,0,0,4,1.074,0.368,2,1,25
IJ0305,0,0,4,1.039,0.327,2,1,26
IJ0305,0,0,4,1.989,0.685,2,1,27
IJ0305,0,0,4,2.5,0.385,1,1,28
IJ0305,0,0,4,1.877,0.392,1,1,29
IJ0305,0,0,1,1.726,2.487,1,1,30
IJ0305,0,0,4,1.044,0.506,1,1,31
IJ0305,0,1,3,1.896,0.419,1,0,32
IJ0305,0,0,4,1.132,0.468,1,1,33
IJ0305,0,0,4,1.202,0.447,1,1,34
IJ0305,0,0,4,1.342,0.405,1,1,35
IJ0305,0,0,3,1.053,0.347,1,1,36
IJ0305,1,1,4,1.165,0.485,2,1,1
IJ0305,1,1,4,1.005,0.359,2,1,2
IJ0305,1,0,3,1.543,0.348,2,0,3
IJ0305,1,1,4,1.472,0.429,2,1,4
IJ0305,1,1,3,0.858,0.377,2,1,5
IJ0305,1,1,4,1.07,0.371,2,1,6
IJ0305,1,1,2,1.271,0.391,2,1,7
IJ0305,1,1,1,1.283,2.4,2,1,8
IJ0305,1,1,4,0.977,0.741,2,1,9
IJ0305,1,1,4,1.003,0.397,1,1,10
IJ0305,1,1,4,0.951,0.348,1,1,11
IJ0305,1,1,4,1.197,0.286,1,1,12
IJ0305,1,1,4,0.953,0.396,1,1,13
IJ0305,1,0,4,0,0.396,1,0,14
IJ0305,1,1,3,0.877,0.412,1,1,15
IJ0305,1,1,4,0.968,0.39,1,1,16
IJ0305,1,1,4,0.863,0.353,1,1,17
IJ0305,1,1,4,1.578,0.668,1,1,18
IJ0305,0,1,4,1.753,0.43,2,0,19
IJ0305,0,0,4,1.133,0.324,2,1,20
IJ0305,0,0,4,1.625,0.142,2,1,21
IJ0305,0,1,3,1.192,0.358,2,0,22
IJ0305,0,0,4,1.168,0.501,2,1,23
IJ0305,0,0,4,1.756,0.345,2,1,24
IJ0305,0,0,4,1.279,0.387,2,1,25
IJ0305,0,1,4,0.914,0.387,2,0,26
IJ0305,0,0,4,1.316,0.323,2,1,27
IJ0305,0,0,4,1.097,0.493,1,1,28
IJ0305,0,0,3,1.004,0.358,1,1,29
IJ0305,0,0,4,2.175,0.442,1,1,30
IJ0305,0,0,4,1.92,0.397,1,1,31
IJ0305,0,0,4,1.016,0.383,1,1,32
IJ0305,0,0,,1.731,0,1,1,33
IJ0305,0,0,4,0.938,0.896,1,1,34
IJ0305,0,0,4,2.116,0.352,1,1,35
IJ0305,0,0,4,1.676,0.372,1,1,36
IJ0305,1,1,4,1.255,0.392,2,1,1
IJ0305,1,1,4,1.701,0.592,2,1,2
IJ0305,1,1,3,0.945,0.416,2,1,3
IJ0305,1,1,3,0.981,0.347,2,1,4
IJ0305,1,0,,0,0,2,0,5
IJ0305,1,1,4,1.012,0.462,2,1,6
IJ0305,1,1,4,1.715,0.386,2,1,7
IJ0305,1,1,4,1.042,0.466,2,1,8
IJ0305,1,1,4,1.098,0.937,2,1,9
IJ0305,1,1,4,2.576,0.393,1,1,10
IJ0305,1,1,4,1.053,0.528,1,1,11
IJ0305,1,1,4,1.316,0.708,1,1,12
IJ0305,1,1,4,0.987,0.412,1,1,13
IJ0305,1,1,4,1.163,0.67,1,1,14
IJ0305,1,0,4,1.101,0.366,1,0,15
IJ0305,1,1,3,0.888,0.328,1,1,16
IJ0305,1,1,4,1.253,0.312,1,1,17
IJ0305,1,1,2,1.235,0.398,1,1,18
IJ0305,0,1,2,0.914,0.386,2,0,19
IJ0305,0,0,4,0.902,0.362,2,1,20
IJ0305,0,0,4,0.93,0.642,2,1,21
IJ0305,0,0,4,1.07,0.43,2,1,22
IJ0305,0,1,3,1.228,0.372,2,0,23
IJ0305,0,0,4,1.116,0.434,2,1,24
IJ0305,0,0,3,1.208,2.104,2,1,25
IJ0305,0,0,4,2.078,0.416,2,1,26
IJ0305,0,1,3,1.151,0.648,2,0,27
IJ0305,0,0,4,1.095,0.422,1,1,28
IJ0305,0,0,4,1.206,0.51,1,1,29
IJ0305,0,0,4,0.926,0.34,1,1,30
IJ0305,0,0,4,0.926,0.592,1,1,31
IJ0305,0,0,4,0.9,0.349,1,1,32
IJ0305,0,1,4,1.144,0.372,1,0,33
IJ0305,0,1,4,0.972,0.359,1,0,34
IJ0305,0,0,4,1.207,0.694,1,1,35
IJ0305,0,0,4,1.107,0.6,1,1,36
katost,1,1,3,1.17,0.755,2,1,1
katost,1,1,3,2.098,1.284,2,1,2
katost,1,0,2,1.298,1.035,2,0,3
katost,1,1,3,1.033,0,2,1,4
katost,1,1,3,1.102,0.648,2,1,5
katost,1,1,3,1.251,0.933,2,1,6
katost,1,1,2,1.958,2.682,2,1,7
katost,1,1,2,1.074,1.16,2,1,8
katost,1,1,3,1.203,0.214,2,1,9
katost,1,1,2,1.41,1.463,1,1,10
katost,1,1,3,1.139,0.618,1,1,11
katost,1,1,2,1.136,0.639,1,1,12
katost,1,0,3,1.322,1.11,1,0,13
katost,1,0,2,1.302,2.243,1,0,14
katost,1,1,3,1.331,0.852,1,1,15
katost,1,1,2,1.354,1.246,1,1,16
katost,1,1,2,1.259,1.925,1,1,17
katost,1,1,2,1.359,2.062,1,1,18
katost,0,0,3,1.094,0.05,2,1,19
katost,0,0,3,1.169,0.665,2,1,20
katost,0,0,3,1.237,1.364,2,1,21
katost,0,0,3,1.281,1.503,2,1,22
katost,0,0,2,1.1,1.149,2,1,23
katost,0,1,,1.853,0,2,0,24
katost,0,0,3,1.198,0.603,2,1,25
katost,0,0,3,1.224,1.126,2,1,26
katost,0,0,2,1.234,1.183,2,1,27
katost,0,0,3,1.673,1.444,1,1,28
katost,0,0,3,1.12,1.341,1,1,29
katost,0,1,2,2.574,0.776,1,0,30
katost,0,0,3,1.232,0.735,1,1,31
katost,0,0,3,1.172,1.079,1,1,32
katost,0,1,3,1.208,2.243,1,0,33
katost,0,0,2,1.595,1.555,1,1,34
katost,0,0,3,1.089,0.745,1,1,35
katost,0,0,3,1.218,0.966,1,1,36
katost,1,1,2,1.009,1.741,2,1,1
katost,1,0,2,1.331,0.854,2,0,2
katost,1,1,2,1.15,0.849,2,1,3
katost,1,1,2,1.285,0.665,2,1,4
katost,1,1,3,1.374,0.511,2,1,5
katost,1,1,1,1.165,2.619,2,1,6
katost,1,1,2,1.177,0.185,2,1,7
katost,1,1,3,1.105,1.08,2,1,8
katost,1,1,2,1.095,0.672,2,1,9
katost,1,1,3,1.171,1.044,1,1,10
katost,1,1,2,1.248,0.853,1,1,11
katost,1,1,3,1.553,1.417,1,1,12
katost,1,1,3,1.052,0.349,1,1,13
katost,1,0,2,1.168,1.007,1,0,14
katost,1,1,2,1.114,0.819,1,1,15
katost,1,0,3,1.176,0.638,1,0,16
katost,1,1,2,1.148,0.735,1,1,17
katost,1,1,3,1.202,0.795,1,1,18
katost,0,0,3,1.126,0.475,2,1,19
katost,0,0,2,1.126,2.607,2,1,20
katost,0,0,2,1.35,0.6,2,1,21
katost,0,1,2,1.582,0.818,2,0,22
katost,0,0,3,1.228,0.921,2,1,23
katost,0,0,1,1.128,0.871,2,1,24
katost,0,0,2,1.009,0.872,2,1,25
katost,0,0,2,1.179,0.67,2,1,26
katost,0,0,3,1.147,0.669,2,1,27
katost,0,0,3,1.682,0.481,1,1,28
katost,0,0,3,1.098,0.852,1,1,29
katost,0,0,3,1.048,0.502,1,1,30
katost,0,0,2,1.094,1.351,1,1,31
katost,0,0,3,1.146,0.619,1,1,32
katost,0,1,3,1.054,0.828,1,0,33
katost,0,1,1,1.438,0.119,1,0,34
katost,0,1,2,1.087,1.262,1,0,35
katost,0,0,2,1.247,0.121,1,1,36
katost,1,1,2,1.054,0.713,2,1,1
katost,1,1,3,0.997,0.503,2,1,2
katost,1,1,3,0.923,1.51,2,1,3
katost,1,1,3,0.745,0.595,2,1,4
katost,1,1,2,1.116,0.941,2,1,5
katost,1,1,2,1.104,1.011,2,1,6
katost,1,1,3,1.15,0.531,2,1,7
katost,1,1,2,1.161,0.896,2,1,8
katost,1,1,3,1.048,0.552,2,1,9
katost,1,1,3,0.778,0.556,1,1,10
katost,1,1,3,1.248,0.034,1,1,11
katost,1,1,2,1.428,0.856,1,1,12
katost,1,1,3,0.809,0.475,1,1,13
katost,1,1,3,0.94,1.011,1,1,14
katost,1,1,3,0.838,2.26,1,1,15
katost,1,1,3,0.829,0.738,1,1,16
katost,1,1,3,0.86,0.557,1,1,17
katost,1,1,3,0.753,0.164,1,1,18
katost,0,0,2,1.214,0.569,2,1,19
katost,0,1,3,1.167,0.834,2,0,20
katost,0,0,3,1.035,0.778,2,1,21
katost,0,1,3,0.518,0.599,2,0,22
katost,0,0,3,1.052,1.061,2,1,23
katost,0,0,3,1.529,1.004,2,1,24
katost,0,0,3,0.969,1.581,2,1,25
katost,0,0,2,1.011,0.49,2,1,26
katost,0,1,3,0.817,0.6,2,0,27
katost,0,0,3,0.939,0.734,1,1,28
katost,0,0,3,1.331,0.669,1,1,29
katost,0,0,3,1.066,1.807,1,1,30
katost,0,0,3,1.129,0.986,1,1,31
katost,0,0,3,0.914,0.803,1,1,32
katost,0,0,3,0.934,0.715,1,1,33
katost,0,0,3,0.959,0.595,1,1,34
katost,0,0,3,1.01,0.556,1,1,35
katost,0,0,3,1.101,0.649,1,1,36
kma25,1,1,4,1.482,1.835,2,1,1
kma25,1,0,3,1.061,2.128,2,0,2
kma25,1,1,2,1.466,1.564,2,1,3
kma25,1,1,2,1.476,2.724,2,1,4
kma25,1,0,3,2.937,1.995,2,0,5
kma25,1,0,4,1.059,1.557,2,0,6
kma25,1,1,4,1.853,2.195,2,1,7
kma25,1,1,2,1.601,1.798,2,1,8
kma25,1,1,4,1.189,2.14,2,1,9
kma25,1,1,3,1.19,1.882,1,1,10
kma25,1,NaN,NaN,NaN,NaN,1,0,11
kma25,1,1,NaN,2.379,NaN,1,1,12
kma25,1,0,NaN,2.028,NaN,1,0,13
kma25,1,0,2,1.174,1.714,1,0,14
kma25,1,0,NaN,1.472,NaN,1,0,15
kma25,1,0,4,1.775,1.094,1,0,16
kma25,1,1,2,1.518,0.6,1,1,17
kma25,1,NaN,NaN,NaN,NaN,1,0,18
kma25,0,0,4,2.086,0.232,2,1,19
kma25,0,0,3,1.164,2.059,2,1,20
kma25,0,0,4,1.266,1.683,2,1,21
kma25,0,0,3,1.258,2.291,2,1,22
kma25,0,1,3,1.335,1.515,2,0,23
kma25,0,NaN,2,NaN,2.084,2,0,24
kma25,0,0,3,2.332,2.268,2,1,25
kma25,0,NaN,4,NaN,2.109,2,0,26
kma25,0,1,NaN,2.103,NaN,2,0,27
kma25,0,0,NaN,2.024,NaN,1,1,28
kma25,0,0,4,1.801,1.306,1,1,29
kma25,0,NaN,4,NaN,1.551,1,0,30
kma25,0,0,4,2.897,1.72,1,1,31
kma25,0,1,NaN,1.359,NaN,1,0,32
kma25,0,0,3,2.779,2.055,1,1,33
kma25,0,0,4,1.591,1.123,1,1,34
kma25,0,1,NaN,1.768,NaN,1,0,35
kma25,0,0,2,1.694,1.213,1,1,36
kma25,1,1,4,1.411,0.989,2,1,1
kma25,1,0,4,1.121,0.862,2,0,2
kma25,1,1,4,1.465,0.619,2,1,3
kma25,1,0,4,1.284,0.683,2,0,4
kma25,1,0,4,0.973,0.91,2,0,5
kma25,1,0,2,1.312,1.39,2,0,6
kma25,1,1,4,1.492,1.008,2,1,7
kma25,1,0,NaN,1.506,NaN,2,0,8
kma25,1,1,3,1.478,1.557,2,1,9
kma25,1,NaN,NaN,NaN,NaN,1,0,10
kma25,1,1,2,1.591,1.258,1,1,11
kma25,1,1,3,2.615,0.986,1,1,12
kma25,1,NaN,4,NaN,1.443,1,0,13
kma25,1,0,NaN,1.315,NaN,1,0,14
kma25,1,1,4,1.709,1.121,1,1,15
kma25,1,0,4,1.509,1.596,1,0,16
kma25,1,0,2,0.978,1.694,1,0,17
kma25,1,1,3,2.81,1.717,1,1,18
kma25,0,0,4,1.7,0.001,2,1,19
kma25,0,0,4,1.309,0.725,2,1,20
kma25,0,0,3,1.847,1.536,2,1,21
kma25,0,0,4,1.185,1.266,2,1,22
kma25,0,0,3,1.514,1.92,2,1,23
kma25,0,NaN,4,NaN,1.056,2,0,24
kma25,0,1,4,1.324,0.841,2,0,25
kma25,0,0,2,1.767,0.852,2,1,26
kma25,0,0,3,1.478,1.718,2,1,27
kma25,0,0,NaN,1.551,NaN,1,1,28
kma25,0,0,2,1.191,2.709,1,1,29
kma25,0,1,3,1.015,1.511,1,0,30
kma25,0,0,4,0.999,1.769,1,1,31
kma25,0,0,1,1.544,1.874,1,1,32
kma25,0,0,4,1.353,1.564,1,1,33
kma25,0,0,4,0.973,0.621,1,1,34
kma25,0,1,NaN,1.136,NaN,1,0,35
kma25,0,0,4,1.351,0.736,1,1,36
kma25,1,1,2,1.31,1.654,2,1,1
kma25,1,1,NaN,1.526,NaN,2,1,2
kma25,1,1,3,1.262,1.789,2,1,3
kma25,1,1,NaN,1.789,NaN,2,1,4
kma25,1,1,2,1.176,1.324,2,1,5
kma25,1,1,3,0.834,1.182,2,1,6
kma25,1,1,2,2.018,1.033,2,1,7
kma25,1,1,3,1.862,2.944,2,1,8
kma25,1,1,3,1.087,0.347,2,1,9
kma25,1,1,2,1.498,1.368,1,1,10
kma25,1,1,NaN,1.819,NaN,1,1,11
kma25,1,1,3,1.179,1.201,1,1,12
kma25,1,0,3,1.212,1.054,1,0,13
kma25,1,1,3,1.558,1.807,1,1,14
kma25,1,1,2,1.264,1.302,1,1,15
kma25,1,1,NaN,2.056,NaN,1,1,16
kma25,1,0,2,2.146,0.702,1,0,17
kma25,1,1,3,1.577,0.462,1,1,18
kma25,0,1,2,1.551,1.488,2,0,19
kma25,0,0,2,1.411,1.556,2,1,20
kma25,0,0,2,1.139,1.262,2,1,21
kma25,0,0,4,1.115,1.035,2,1,22
kma25,0,0,3,1.473,1.561,2,1,23
kma25,0,1,3,1.412,0.322,2,0,24
kma25,0,0,3,1.278,1.645,2,1,25
kma25,0,0,3,1.257,1.927,2,1,26
kma25,0,1,3,1.136,0.846,2,0,27
kma25,0,1,2,0.673,0.977,1,0,28
kma25,0,1,2,1.181,1.968,1,0,29
kma25,0,0,3,0.963,1.871,1,1,30
kma25,0,0,4,1.268,0.703,1,1,31
kma25,0,0,2,1.849,2.218,1,1,32
kma25,0,1,3,1.169,1.447,1,0,33
kma25,0,0,2,1.302,1.714,1,1,34
kma25,0,0,3,1.14,0.942,1,1,35
kma25,0,0,4,1.169,1.481,1,1,36
Lea,1,1,2,0.762,0.405,2,1,1
Lea,1,1,2,0.743,0.323,2,1,2
Lea,1,1,2,0.985,0.466,2,1,3
Lea,1,1,2,1.333,0.184,2,1,4
Lea,1,1,2,0.843,0.808,2,1,5
Lea,1,1,2,0.869,0.281,2,1,6
Lea,1,1,2,1.211,0.409,2,1,7
Lea,1,1,2,1.125,0.189,2,1,8
Lea,1,1,2,1.148,0.351,2,1,9
Lea,1,1,2,0.817,0.35,1,1,10
Lea,1,1,NaN,0.784,NaN,1,1,11
Lea,1,1,2,0.751,0.44,1,1,12
Lea,1,1,2,0.707,0.943,1,1,13
Lea,1,1,2,0.892,0.341,1,1,14
Lea,1,1,2,0.707,0.39,1,1,15
Lea,1,1,2,0.719,0.254,1,1,16
Lea,1,0,2,1.159,0.273,1,0,17
Lea,1,1,2,0.757,0.508,1,1,18
Lea,0,0,2,1.056,0.328,2,1,19
Lea,0,1,2,0.971,0.05,2,0,20
Lea,0,0,2,1.293,0.277,2,1,21
Lea,0,0,2,1.183,0.351,2,1,22
Lea,0,1,2,1.467,0.398,2,0,23
Lea,0,0,2,1.061,0.39,2,1,24
Lea,0,1,2,1.221,0.329,2,0,25
Lea,0,0,2,1.22,0.397,2,1,26
Lea,0,0,2,1.399,0.208,2,1,27
Lea,0,0,2,1.6,1.333,1,1,28
Lea,0,1,2,1.266,0.481,1,0,29
Lea,0,1,2,1.182,0.28,1,0,30
Lea,0,1,2,1.059,0.308,1,0,31
Lea,0,1,2,1.396,0.458,1,0,32
Lea,0,1,2,0.881,0.419,1,0,33
Lea,0,0,2,1.232,0.332,1,1,34
Lea,0,0,2,1.154,0.33,1,1,35
Lea,0,1,2,0.587,0.419,1,0,36
Lea,1,1,2,0.934,0.324,2,1,1
Lea,1,1,2,0.917,1.149,2,1,2
Lea,1,0,2,1.24,0.622,2,0,3
Lea,1,1,2,0.816,0.618,2,1,4
Lea,1,1,2,0.861,0.638,2,1,5
Lea,1,1,2,0.926,0.638,2,1,6
Lea,1,1,2,1.501,0.927,2,1,7
Lea,1,1,2,0.827,0.964,2,1,8
Lea,1,1,2,0.846,0.419,2,1,9
Lea,1,1,2,0.784,0.506,1,1,10
Lea,1,1,2,0.983,0.433,1,1,11
Lea,1,1,2,0.906,0.543,1,1,12
Lea,1,1,2,1.022,0.78,1,1,13
Lea,1,1,2,0.947,0.034,1,1,14
Lea,1,0,2,1.025,0.439,1,0,15
Lea,1,1,2,0.807,0.577,1,1,16
Lea,1,1,2,1.049,0.748,1,1,17
Lea,1,1,2,0.903,0.663,1,1,18
Lea,0,1,2,0.933,0.318,2,0,19
Lea,0,1,2,0.981,0.55,2,0,20
Lea,0,0,2,1.013,0.366,2,1,21
Lea,0,1,2,0.775,0.591,2,0,22
Lea,0,0,2,1.272,0.546,2,1,23
Lea,0,0,2,1.255,0.642,2,1,24
Lea,0,1,2,1.1,0.528,2,0,25
Lea,0,0,2,1,0.665,2,1,26
Lea,0,1,2,0.977,0.623,2,0,27
Lea,0,1,2,1.054,0.579,1,0,28
Lea,0,1,2,0.858,0.593,1,0,29
Lea,0,1,2,0.887,0.481,1,0,30
Lea,0,1,2,1.086,0.376,1,0,31
Lea,0,1,1,1.187,1.573,1,0,32
Lea,0,0,2,1.061,0.505,1,1,33
Lea,0,1,2,0.897,0.386,1,0,34
Lea,0,0,2,1.329,0.557,1,1,35
Lea,0,1,2,1.004,0.862,1,0,36
Lea,1,0,3,1.306,0.577,2,0,1
Lea,1,1,2,0.83,0.588,2,1,2
Lea,1,1,2,0.905,0.228,2,1,3
Lea,1,1,3,0.827,0.23,2,1,4
Lea,1,1,2,1.125,1.058,2,1,5
Lea,1,1,2,0.977,1.139,2,1,6
Lea,1,1,2,1.034,0.933,2,1,7
Lea,1,1,2,0.861,0.665,2,1,8
Lea,1,1,2,0.944,0.507,2,1,9
Lea,1,1,2,1.155,0.183,1,1,10
Lea,1,0,3,1.034,1.465,1,0,11
Lea,1,1,2,0.81,0.185,1,1,12
Lea,1,1,3,0.936,0.528,1,1,13
Lea,1,1,2,0.866,0.533,1,1,14
Lea,1,1,3,0.818,1.332,1,1,15
Lea,1,1,2,0.936,0.464,1,1,16
Lea,1,1,2,0.773,0.659,1,1,17
Lea,1,0,2,1.822,0.579,1,0,18
Lea,0,0,2,0.949,0.968,2,1,19
Lea,0,0,2,1.17,0.146,2,1,20
Lea,0,0,2,0.896,0.485,2,1,21
Lea,0,0,3,0.982,0.531,2,1,22
Lea,0,0,2,1.018,1.095,2,1,23
Lea,0,0,2,1.051,0.562,2,1,24
Lea,0,0,2,0.928,1.774,2,1,25
Lea,0,0,2,0.932,0.535,2,1,26
Lea,0,0,2,1.09,0.544,2,1,27
Lea,0,NaN,3,NaN,1.328,1,0,28
Lea,0,0,2,1.258,0.51,1,1,29
Lea,0,0,2,0.92,0.312,1,1,30
Lea,0,0,2,1.289,0.575,1,1,31
Lea,0,0,2,1.271,0.548,1,1,32
Lea,0,1,NaN,0.765,NaN,1,0,33
Lea,0,0,2,0.983,0.503,1,1,34
Lea,0,1,2,0.942,0.624,1,0,35
Lea,0,1,2,1.175,0.594,1,0,36
Lea,1,1,2,1.029,0.322,2,1,1
Lea,1,1,2,0.801,0.41,2,1,2
Lea,1,0,2,1.007,0.865,2,0,3
Lea,1,1,2,0.884,0.416,2,1,4
Lea,1,1,2,0.675,0.434,2,1,5
Lea,1,1,2,0.771,0.317,2,1,6
Lea,1,1,2,0.814,0.386,2,1,7
Lea,1,1,2,0.796,0.512,2,1,8
Lea,1,1,2,0.803,0.314,2,1,9
Lea,1,1,2,0.817,0.265,1,1,10
Lea,1,1,2,0.828,0.363,1,1,11
Lea,1,1,2,0.583,0.368,1,1,12
Lea,1,0,2,1.103,0.799,1,0,13
Lea,1,1,2,0.788,0.342,1,1,14
Lea,1,1,2,0.576,0.408,1,1,15
Lea,1,0,2,0.958,0.308,1,0,16
Lea,1,1,2,0.75,0.564,1,1,17
Lea,1,1,2,0.823,0.357,1,1,18
Lea,0,1,2,1.202,0.56,2,0,19
Lea,0,0,2,0.854,0.429,2,1,20
Lea,0,0,2,0.948,0.485,2,1,21
Lea,0,0,2,0.952,0.381,2,1,22
Lea,0,1,2,1.054,0.286,2,0,23
Lea,0,0,2,0.969,0.458,2,1,24
Lea,0,1,2,0.814,0.342,2,0,25
Lea,0,0,2,0.84,0.483,2,1,26
Lea,0,0,2,0.832,0.344,2,1,27
Lea,0,0,2,0.899,0.368,1,1,28
Lea,0,0,2,0.973,0.155,1,1,29
Lea,0,1,2,0.816,0.385,1,0,30
Lea,0,1,2,0.617,0.417,1,0,31
Lea,0,0,2,0.795,0.505,1,1,32
Lea,0,0,2,1.04,0.093,1,1,33
Lea,0,0,2,0.904,0.337,1,1,34
Lea,0,0,2,0.857,0.391,1,1,35
Lea,0,0,2,1.23,0.404,1,1,36
Lea,1,1,2,1.217,0.484,2,1,1
Lea,1,1,3,0.893,0.55,2,1,2
Lea,1,1,2,0.875,0.508,2,1,3
Lea,1,1,2,0.843,0.224,2,1,4
Lea,1,1,3,0.814,0.32,2,1,5
Lea,1,1,2,0.928,0.356,2,1,6
Lea,1,0,2,0.846,0.257,2,0,7
Lea,1,1,2,0.896,0.321,2,1,8
Lea,1,1,3,0.999,0.268,2,1,9
Lea,1,1,2,0.767,0.367,1,1,10
Lea,1,1,2,0.941,0.407,1,1,11
Lea,1,1,2,1.03,0.657,1,1,12
Lea,1,0,3,1.067,0.282,1,0,13
Lea,1,1,3,0.686,0.328,1,1,14
Lea,1,1,3,1.085,0.448,1,1,15
Lea,1,1,3,0.761,0.273,1,1,16
Lea,1,1,2,1.108,0.658,1,1,17
Lea,1,1,2,0.751,0.247,1,1,18
Lea,0,1,2,0.814,0.362,2,0,19
Lea,0,0,2,0.829,0.338,2,1,20
Lea,0,0,2,0.943,0.982,2,1,21
Lea,0,0,3,0.86,0.231,2,1,22
Lea,0,0,2,0.815,0.243,2,1,23
Lea,0,0,3,0.87,0.364,2,1,24
Lea,0,0,3,0.794,0.438,2,1,25
Lea,0,0,3,0.853,0.439,2,1,26
Lea,0,0,2,0.793,0.308,2,1,27
Lea,0,1,3,1.079,0.436,1,0,28
Lea,0,0,2,0.927,0.482,1,1,29
Lea,0,0,2,0.811,0.355,1,1,30
Lea,0,0,3,0.792,0.442,1,1,31
Lea,0,0,2,0.823,0.379,1,1,32
Lea,0,0,3,0.864,0.319,1,1,33
Lea,0,1,2,0.85,0.283,1,0,34
Lea,0,0,3,0.746,0.294,1,1,35
Lea,0,0,3,0.807,0.467,1,1,36
Lea,1,1,2,0.808,0.225,2,1,1
Lea,1,0,2,1.027,0.017,2,0,2
Lea,1,1,3,0.746,0.304,2,1,3
Lea,1,1,3,0.695,0.364,2,1,4
Lea,1,1,2,0.78,0.283,2,1,5
Lea,1,1,2,0.811,0.307,2,1,6
Lea,1,1,2,1.016,0.241,2,1,7
Lea,1,0,2,0.913,0.243,2,0,8
Lea,1,1,2,0.959,0.308,2,1,9
Lea,1,1,3,0.797,0.318,1,1,10
Lea,1,0,2,0.96,0.266,1,0,11
Lea,1,1,2,0.753,0.263,1,1,12
Lea,1,1,2,0.819,0.294,1,1,13
Lea,1,1,2,0.851,0.416,1,1,14
Lea,1,1,2,0.623,0.426,1,1,15
Lea,1,1,2,0.878,0.412,1,1,16
Lea,1,1,2,1.099,0.201,1,1,17
Lea,1,1,2,0.882,0.284,1,1,18
Lea,0,0,2,0.872,0.143,2,1,19
Lea,0,0,2,0.855,0.378,2,1,20
Lea,0,1,2,0.819,0.39,2,0,21
Lea,0,0,2,0.868,0.233,2,1,22
Lea,0,0,2,0.858,0.343,2,1,23
Lea,0,0,2,0.938,0.328,2,1,24
Lea,0,1,2,0.906,0.387,2,0,25
Lea,0,0,2,0.927,0.721,2,1,26
Lea,0,0,2,0.835,0.199,2,1,27
Lea,0,0,2,0.818,0.365,1,1,28
Lea,0,0,2,0.817,0.33,1,1,29
Lea,0,0,2,0.895,0.755,1,1,30
Lea,0,0,3,0.957,0.343,1,1,31
Lea,0,1,3,0.758,0.432,1,0,32
Lea,0,0,2,0.847,0.282,1,1,33
Lea,0,0,2,0.793,0.441,1,1,34
Lea,0,0,2,1.071,0.263,1,1,35
Lea,0,0,2,0.905,0.362,1,1,36
MB2410,1,1,4,0.969,0.464,2,1,1
MB2410,1,0,2,1.375,0.374,2,0,2
MB2410,1,1,4,1.089,0.368,2,1,3
MB2410,1,0,4,1.147,0.461,2,0,4
MB2410,1,0,2,0.94,0.527,2,0,5
MB2410,1,1,2,1.242,0.423,2,1,6
MB2410,1,0,2,0.987,0.691,2,0,7
MB2410,1,0,2,1.478,0.372,2,0,8
MB2410,1,1,2,1.076,0.442,2,1,9
MB2410,1,1,2,0.97,0.343,1,1,10
MB2410,1,1,2,1.231,0.369,1,1,11
MB2410,1,1,2,1.121,0.363,1,1,12
MB2410,1,1,2,1.072,0.445,1,1,13
MB2410,1,1,2,1.051,0.577,1,1,14
MB2410,1,1,2,1.197,1.093,1,1,15
MB2410,1,1,4,0.984,1.416,1,1,16
MB2410,1,1,2,1.141,0.558,1,1,17
MB2410,1,1,2,1.093,0.664,1,1,18
MB2410,0,0,2,1.007,0.439,2,1,19
MB2410,0,0,4,0.854,0.545,2,1,20
MB2410,0,1,4,1.165,0.853,2,0,21
MB2410,0,0,4,1.148,0.484,2,1,22
MB2410,0,0,4,0.944,0.373,2,1,23
MB2410,0,0,2,1.252,0.481,2,1,24
MB2410,0,0,2,1.091,0.388,2,1,25
MB2410,0,0,2,0.889,0.396,2,1,26
MB2410,0,0,2,0.974,0.367,2,1,27
MB2410,0,0,4,0.946,0.419,1,1,28
MB2410,0,0,4,0.964,1.369,1,1,29
MB2410,0,1,2,0.984,0.832,1,0,30
MB2410,0,0,2,0.944,0.329,1,1,31
MB2410,0,0,4,0.964,0.801,1,1,32
MB2410,0,0,2,1.321,1.39,1,1,33
MB2410,0,0,4,1.014,0.827,1,1,34
MB2410,0,0,4,0.976,0.806,1,1,35
MB2410,0,0,4,0.932,0.85,1,1,36
MB2410,1,1,4,0.971,0.481,2,1,1
MB2410,1,0,4,1.049,0.39,2,0,2
MB2410,1,1,4,1.895,1.509,2,1,3
MB2410,1,0,4,0.852,0.392,2,0,4
MB2410,1,1,4,0.971,0.368,2,1,5
MB2410,1,1,2,1.443,0.441,2,1,6
MB2410,1,1,4,1.038,0.37,2,1,7
MB2410,1,1,4,1.131,0.986,2,1,8
MB2410,1,1,4,1.232,0.351,2,1,9
MB2410,1,1,2,0.926,0.484,1,1,10
MB2410,1,0,2,1.245,0.389,1,0,11
MB2410,1,1,2,0.946,0.779,1,1,12
MB2410,1,1,2,0.952,0.365,1,1,13
MB2410,1,1,2,1.01,0.339,1,1,14
MB2410,1,1,2,1.066,1.033,1,1,15
MB2410,1,1,3,0.954,1.234,1,1,16
MB2410,1,0,2,0.917,0.506,1,0,17
MB2410,1,1,2,0.958,0.595,1,1,18
MB2410,0,0,4,0.886,0.37,2,1,19
MB2410,0,0,4,1.212,0.955,2,1,20
MB2410,0,0,4,1.052,0.848,2,1,21
MB2410,0,0,4,0.854,0.692,2,1,22
MB2410,0,0,4,0.766,0.384,2,1,23
MB2410,0,0,4,0.928,0.338,2,1,24
MB2410,0,0,4,0.821,0.485,2,1,25
MB2410,0,0,4,0.867,0.417,2,1,26
MB2410,0,0,4,0.81,0.342,2,1,27
MB2410,0,1,4,0.893,0.73,1,0,28
MB2410,0,0,2,1.089,0.342,1,1,29
MB2410,0,0,2,0.908,0.419,1,1,30
MB2410,0,0,2,1.013,0.486,1,1,31
MB2410,0,0,4,0.864,0.527,1,1,32
MB2410,0,0,2,0.894,0.373,1,1,33
MB2410,0,0,2,0.946,0.142,1,1,34
MB2410,0,0,2,0.984,0.832,1,1,35
MB2410,0,1,2,1.404,0.553,1,0,36
MB2410,1,1,2,1.053,0.146,2,1,1
MB2410,1,1,2,1.044,0.656,2,1,2
MB2410,1,0,2,0.831,0.418,2,0,3
MB2410,1,1,2,1.432,0.641,2,1,4
MB2410,1,1,2,0.956,0.61,2,1,5
MB2410,1,1,4,1.027,1.42,2,1,6
MB2410,1,1,2,1.011,0.523,2,1,7
MB2410,1,1,2,1.157,0.776,2,1,8
MB2410,1,1,2,1.143,1.058,2,1,9
MB2410,1,1,2,1.01,0.463,1,1,10
MB2410,1,1,2,1.292,0.392,1,1,11
MB2410,1,1,2,1.356,0.392,1,1,12
MB2410,1,1,4,1.061,0.573,1,1,13
MB2410,1,1,2,1.562,0.502,1,1,14
MB2410,1,0,4,1.307,1.126,1,0,15
MB2410,1,0,1,1.244,0.416,1,0,16
MB2410,1,1,2,1.92,1.53,1,1,17
MB2410,1,1,2,1.124,0.644,1,1,18
MB2410,0,0,2,1.311,0.413,2,1,19
MB2410,0,0,2,0.876,0.373,2,1,20
MB2410,0,0,3,0.822,1.804,2,1,21
MB2410,0,0,2,0.823,0.481,2,1,22
MB2410,0,0,3,0.886,0.687,2,1,23
MB2410,0,0,2,2.783,0.535,2,1,24
MB2410,0,0,2,0.861,0.447,2,1,25
MB2410,0,0,2,0.824,0.459,2,1,26
MB2410,0,0,2,0.937,0.505,2,1,27
MB2410,0,0,2,0.854,0.463,1,1,28
MB2410,0,0,4,0.817,1.332,1,1,29
MB2410,0,0,2,0.85,0.418,1,1,30
MB2410,0,0,2,1.136,0.545,1,1,31
MB2410,0,0,4,1.014,0.802,1,1,32
MB2410,0,0,4,0.924,1.104,1,1,33
MB2410,0,0,4,0.854,1.511,1,1,34
MB2410,0,0,2,0.886,0.465,1,1,35
MB2410,0,0,2,0.96,0.417,1,1,36
MB2410,1,0,2,1.048,0.385,2,0,1
MB2410,1,0,4,0.905,0.745,2,0,2
MB2410,1,0,4,0.818,0.683,2,0,3
MB2410,1,1,4,0.854,0.312,2,1,4
MB2410,1,1,2,1.152,0.381,2,1,5
MB2410,1,1,2,0.961,1.048,2,1,6
MB2410,1,0,2,0.902,0.339,2,0,7
MB2410,1,1,2,0.951,0.416,2,1,8
MB2410,1,1,3,0.838,0.411,2,1,9
MB2410,1,1,2,0.825,0.391,1,1,10
MB2410,1,0,2,0.969,0.414,1,0,11
MB2410,1,1,4,0.935,0.505,1,1,12
MB2410,1,0,2,1.017,0.365,1,0,13
MB2410,1,1,2,0.996,0.354,1,1,14
MB2410,1,0,4,0.843,0.774,1,0,15
MB2410,1,1,2,1.02,0.076,1,1,16
MB2410,1,1,3,1.017,0.318,1,1,17
MB2410,1,1,2,0.878,0.354,1,1,18
MB2410,0,0,2,0.919,0.707,2,1,19
MB2410,0,1,2,1.585,0.872,2,0,20
MB2410,0,0,4,0.758,0.325,2,1,21
MB2410,0,0,2,0.831,0.336,2,1,22
MB2410,0,0,2,0.767,0.498,2,1,23
MB2410,0,0,2,0.85,0.392,2,1,24
MB2410,0,0,2,0.945,0.337,2,1,25
MB2410,0,0,3,0.791,0.793,2,1,26
MB2410,0,0,2,0.843,0.341,2,1,27
MB2410,0,0,2,0.792,0.438,1,1,28
MB2410,0,0,2,0.837,0.379,1,1,29
MB2410,0,0,4,0.857,0.559,1,1,30
MB2410,0,0,3,0.819,0.333,1,1,31
MB2410,0,0,2,0.771,0.36,1,1,32
MB2410,0,1,2,1.029,0.339,1,0,33
MB2410,0,0,2,0.936,0.171,1,1,34
MB2410,0,0,2,0.781,0.612,1,1,35
MB2410,0,0,3,0.825,0.459,1,1,36
MB2410,1,0,2,1.167,0.34,2,0,1
MB2410,1,1,4,1.034,0.34,2,1,2
MB2410,1,1,2,0.968,0.456,2,1,3
MB2410,1,0,2,0.879,0.408,2,0,4
MB2410,1,1,4,1.117,0.338,2,1,5
MB2410,1,1,4,0.867,0.316,2,1,6
MB2410,1,1,4,0.882,0.344,2,1,7
MB2410,1,1,4,0.854,0.315,2,1,8
MB2410,1,0,3,1.065,0.218,2,0,9
MB2410,1,0,4,0.911,0.449,1,0,10
MB2410,1,1,2,0.988,0.528,1,1,11
MB2410,1,1,2,1.13,0.463,1,1,12
MB2410,1,1,2,0.911,0.289,1,1,13
MB2410,1,1,2,1.359,0.411,1,1,14
MB2410,1,0,2,0.853,0.286,1,0,15
MB2410,1,1,4,0.915,0.459,1,1,16
MB2410,1,1,3,0.852,0.377,1,1,17
MB2410,1,1,2,0.993,0.388,1,1,18
MB2410,0,0,2,0.864,0.315,2,1,19
MB2410,0,0,4,0.727,0.361,2,1,20
MB2410,0,0,2,0.823,0.623,2,1,21
MB2410,0,0,4,0.824,1.377,2,1,22
MB2410,0,0,2,0.818,0.389,2,1,23
MB2410,0,0,2,0.845,0.387,2,1,24
MB2410,0,0,4,0.893,0.579,2,1,25
MB2410,0,0,4,0.823,0.337,2,1,26
MB2410,0,0,4,0.873,0.41,2,1,27
MB2410,0,0,4,0.798,0.486,1,1,28
MB2410,0,0,4,0.845,0.26,1,1,29
MB2410,0,0,4,1.686,0.389,1,1,30
MB2410,0,0,2,0.847,1.652,1,1,31
MB2410,0,0,2,0.894,0.733,1,1,32
MB2410,0,0,4,0.929,0.338,1,1,33
MB2410,0,0,2,0.836,0.331,1,1,34
MB2410,0,0,2,0.848,0.319,1,1,35
MB2410,0,0,2,0.817,0.482,1,1,36
MB2410,1,1,4,0.869,0.33,2,1,1
MB2410,1,1,4,1.05,0.383,2,1,2
MB2410,1,1,4,0.976,0.361,2,1,3
MB2410,1,1,4,0.853,0.34,2,1,4
MB2410,1,1,3,1.197,0.319,2,1,5
MB2410,1,1,4,0.967,0.382,2,1,6
MB2410,1,1,4,0.824,0.484,2,1,7
MB2410,1,1,2,0.93,0.36,2,1,8
MB2410,1,1,3,0.973,0.339,2,1,9
MB2410,1,1,2,0.879,0.769,1,1,10
MB2410,1,1,3,0.953,0.391,1,1,11
MB2410,1,1,3,1.072,0.362,1,1,12
MB2410,1,1,4,1.044,0.628,1,1,13
MB2410,1,1,2,0.985,0.416,1,1,14
MB2410,1,0,2,0.919,0.799,1,0,15
MB2410,1,1,4,0.926,0.668,1,1,16
MB2410,1,1,2,0.885,0.331,1,1,17
MB2410,1,1,2,0.903,0.448,1,1,18
MB2410,0,0,4,0.725,0.306,2,1,19
MB2410,0,0,4,0.82,0.364,2,1,20
MB2410,0,0,3,0.869,0.765,2,1,21
MB2410,0,0,4,0.803,0.28,2,1,22
MB2410,0,0,4,0.836,0.296,2,1,23
MB2410,0,0,2,0.871,0.31,2,1,24
MB2410,0,0,3,0.781,0.699,2,1,25
MB2410,0,0,2,0.824,0.342,2,1,26
MB2410,0,0,4,0.873,0.31,2,1,27
MB2410,0,0,3,0.77,0.501,1,1,28
MB2410,0,0,2,0.954,0.297,1,1,29
MB2410,0,0,2,0.851,0.432,1,1,30
MB2410,0,0,2,0.948,0.306,1,1,31
MB2410,0,0,3,0.874,0.292,1,1,32
MB2410,0,0,2,0.902,0.149,1,1,33
MB2410,0,0,2,0.939,0.747,1,1,34
MB2410,0,0,2,0.911,0.456,1,1,35
MB2410,0,0,4,0.818,0.641,1,1,36
P_10848,1,0,2,1.468,0.65,2,0,1
P_10848,1,0,2,2.085,1.88,2,0,2
P_10848,1,1,2,0.984,0.417,2,1,3
P_10848,1,1,2,1.468,0.567,2,1,4
P_10848,1,1,2,0.917,0.567,2,1,5
P_10848,1,1,3,1.067,0.534,2,1,6
P_10848,1,1,2,1.151,0.367,2,1,7
P_10848,1,1,3,1.034,0.95,2,1,8
P_10848,1,1,2,1.167,0.55,2,1,9
P_10848,1,1,3,2.035,1.322,1,1,10
P_10848,1,1,3,1.05,1.217,1,1,11
P_10848,1,1,2,0.968,0.534,1,1,12
P_10848,1,0,2,0.901,0.634,1,0,13
P_10848,1,1,2,1.184,0.784,1,1,14
P_10848,1,1,4,1.117,0.984,1,1,15
P_10848,1,1,2,0.934,0.767,1,1,16
P_10848,1,1,2,1.451,0.617,1,1,17
P_10848,1,1,3,1.084,0.967,1,1,18
P_10848,0,0,2,1.234,1.167,2,1,19
P_10848,0,0,2,0.934,0.517,2,1,20
P_10848,0,0,2,1.134,1.245,2,1,21
P_10848,0,0,2,1.817,0.9,2,1,22
P_10848,0,0,2,1.134,0.75,2,1,23
P_10848,0,1,2,1.134,0.734,2,0,24
P_10848,0,0,3,1.068,1.434,2,1,25
P_10848,0,0,2,1.184,0.35,2,1,26
P_10848,0,0,2,1.217,1.484,2,1,27
P_10848,0,0,2,1.217,0.35,1,1,28
P_10848,0,1,2,1.317,0.417,1,0,29
P_10848,0,0,4,1.134,1.636,1,1,30
P_10848,0,0,2,1.034,0.467,1,1,31
P_10848,0,0,2,0.934,0.3,1,1,32
P_10848,0,1,2,1.034,1.117,1,0,33
P_10848,0,0,2,0.967,0.384,1,1,34
P_10848,0,0,2,1.701,0.884,1,1,35
P_10848,0,0,2,0.967,0.517,1,1,36
P_10848,1,1,2,0.85,0.617,2,1,1
P_10848,1,1,3,0.984,0.65,2,1,2
P_10848,1,1,2,0.867,0.367,2,1,3
P_10848,1,1,2,1.067,0.3,2,1,4
P_10848,1,1,2,0.951,1.484,2,1,5
P_10848,1,1,2,0.884,0.75,2,1,6
P_10848,1,1,2,0.867,0.617,2,1,7
P_10848,1,1,2,1.234,0.584,2,1,8
P_10848,1,1,3,0.984,0.45,2,1,9
P_10848,1,1,2,0.85,0.65,1,1,10
P_10848,1,1,2,0.934,0.967,1,1,11
P_10848,1,1,2,1.018,1.317,1,1,12
P_10848,1,0,2,1.017,0.367,1,0,13
P_10848,1,0,2,1.584,0.334,1,0,14
P_10848,1,0,2,1.934,0.367,1,0,15
P_10848,1,1,3,1.585,0.4,1,1,16
P_10848,1,1,2,0.984,1.117,1,1,17
P_10848,1,1,2,0.984,0.5,1,1,18
P_10848,0,1,3,1.017,0.7,2,0,19
P_10848,0,1,2,1.151,0.634,2,0,20
P_10848,0,0,4,1.051,0.7,2,1,21
P_10848,0,0,2,1.234,0.284,2,1,22
P_10848,0,0,2,1.068,0.65,2,1,23
P_10848,0,0,2,1.018,0.5,2,1,24
P_10848,0,0,2,0.934,0.634,2,1,25
P_10848,0,0,2,0.867,0.617,2,1,26
P_10848,0,0,3,0.984,0.35,2,1,27
P_10848,0,0,2,1.751,0.517,1,1,28
P_10848,0,0,4,1.575,1.449,1,1,29
P_10848,0,0,3,1.668,0.75,1,1,30
P_10848,0,0,2,0.901,0.467,1,1,31
P_10848,0,0,2,1.267,0.867,1,1,32
P_10848,0,0,2,1.084,0.567,1,1,33
P_10848,0,0,2,0.884,0.517,1,1,34
P_10848,0,0,2,1.017,0.7,1,1,35
P_10848,0,0,2,1.451,0.45,1,1,36
P_10848,1,0,2,1.051,0.317,2,0,1
P_10848,1,1,4,1.017,0.65,2,1,2
P_10848,1,1,2,0.851,0.467,2,1,3
P_10848,1,0,2,0.934,0.267,2,0,4
P_10848,1,1,2,1.017,0.417,2,1,5
P_10848,1,1,2,0.984,0.367,2,1,6
P_10848,1,1,2,1.001,0.25,2,1,7
P_10848,1,1,3,0.967,0.35,2,1,8
P_10848,1,1,2,1.151,0.484,2,1,9
P_10848,1,0,3,1.267,0.3,1,0,10
P_10848,1,1,2,1.051,0.717,1,1,11
P_10848,1,1,2,1.15,0.284,1,1,12
P_10848,1,0,2,0.984,0.567,1,0,13
P_10848,1,1,2,1.634,0.467,1,1,14
P_10848,1,0,3,1.334,1.975,1,0,15
P_10848,1,1,2,0.867,0.317,1,1,16
P_10848,1,1,3,0.934,0.4,1,1,17
P_10848,1,1,2,1.001,0.3,1,1,18
P_10848,0,1,2,1.334,0.25,2,0,19
P_10848,0,0,4,0.901,0.95,2,1,20
P_10848,0,0,2,1.918,0.367,2,1,21
P_10848,0,0,2,0.968,0.534,2,1,22
P_10848,0,0,2,1.017,0.317,2,1,23
P_10848,0,0,2,1.167,0.284,2,1,24
P_10848,0,0,4,1.084,1.85,2,1,25
P_10848,0,0,3,0.967,0.417,2,1,26
P_10848,0,1,2,1.051,0.784,2,0,27
P_10848,0,1,2,1.351,0.667,1,0,28
P_10848,0,0,2,1.068,0.284,1,1,29
P_10848,0,0,2,0.934,0.234,1,1,30
P_10848,0,0,2,1.317,0.334,1,1,31
P_10848,0,0,2,0.934,0.75,1,1,32
P_10848,0,0,2,1.384,0.667,1,1,33
P_10848,0,0,2,0.984,0.25,1,1,34
P_10848,0,0,2,0.984,0.334,1,1,35
P_10848,0,0,2,1.001,0.35,1,1,36
P_10848,1,1,2,0.851,0.267,2,1,1
P_10848,1,0,2,1.367,0.35,2,0,2
P_10848,1,1,2,1.367,0.484,2,1,3
P_10848,1,1,2,1.301,0.95,2,1,4
P_10848,1,0,2,0.884,0.267,2,0,5
P_10848,1,0,3,0.767,0.284,2,0,6
P_10848,1,1,3,1.084,0.917,2,1,7
P_10848,1,0,2,0.934,1.284,2,0,8
P_10848,1,1,3,1.217,0.75,2,1,9
P_10848,1,1,2,0.984,0.267,1,1,10
P_10848,1,1,3,0.901,0.65,1,1,11
P_10848,1,1,2,0.917,0.367,1,1,12
P_10848,1,0,2,0.967,0.517,1,0,13
P_10848,1,1,3,0.817,0.4,1,1,14
P_10848,1,0,2,0.867,0.484,1,0,15
P_10848,1,0,2,0.917,0.284,1,0,16
P_10848,1,0,2,0.917,0.25,1,0,17
P_10848,1,0,2,1.1,0.784,1,0,18
P_10848,0,0,2,0.8,0.517,2,1,19
P_10848,0,0,2,0.967,0.484,2,1,20
P_10848,0,0,2,0.817,0.45,2,1,21
P_10848,0,0,2,1.117,0.3,2,1,22
P_10848,0,0,2,0.767,0.384,2,1,23
P_10848,0,0,3,0.867,0.534,2,1,24
P_10848,0,0,3,0.917,0.25,2,1,25
P_10848,0,0,3,0.884,0.734,2,1,26
P_10848,0,0,2,1.534,0.267,2,1,27
P_10848,0,0,3,1.267,1.134,1,1,28
P_10848,0,0,2,0.75,0.384,1,1,29
P_10848,0,0,2,0.8,0.334,1,1,30
P_10848,0,0,2,0.7,0.284,1,1,31
P_10848,0,0,2,0.851,0.467,1,1,32
P_10848,0,0,2,0.967,0.317,1,1,33
P_10848,0,0,3,0.817,0.834,1,1,34
P_10848,0,0,3,0.901,0.884,1,1,35
P_10848,0,0,2,0.75,0.467,1,1,36
P_10848,1,0,2,1.3,0.334,2,0,1
P_10848,1,1,2,1.067,0.334,2,1,2
P_10848,1,0,3,0.884,0.384,2,0,3
P_10848,1,0,3,1.017,0.467,2,0,4
P_10848,1,1,3,1.101,0.784,2,1,5
P_10848,1,1,2,0.834,0.367,2,1,6
P_10848,1,1,2,0.934,0.817,2,1,7
P_10848,1,1,2,0.834,0.401,2,1,8
P_10848,1,0,2,1.001,0.317,2,0,9
P_10848,1,1,3,0.817,0.367,1,1,10
P_10848,1,1,2,0.951,0.284,1,1,11
P_10848,1,1,2,0.867,0.45,1,1,12
P_10848,1,0,2,1.301,0.234,1,0,13
P_10848,1,1,2,1.535,0.35,1,1,14
P_10848,1,1,3,1.167,0.9,1,1,15
P_10848,1,1,2,0.85,0.7,1,1,16
P_10848,1,1,3,0.834,0.367,1,1,17
P_10848,1,1,2,2.085,0.434,1,1,18
P_10848,0,0,3,0.75,0.567,2,1,19
P_10848,0,1,2,1.417,0.367,2,0,20
P_10848,0,0,2,0.984,0.234,2,1,21
P_10848,0,0,2,0.767,0.317,2,1,22
P_10848,0,1,2,1.584,0.467,2,0,23
P_10848,0,0,2,1.05,0.284,2,1,24
P_10848,0,0,3,0.851,0.85,2,1,25
P_10848,0,0,3,0.801,1.067,2,1,26
P_10848,0,0,2,0.8,0.3,2,1,27
P_10848,0,0,3,2.135,1.384,1,1,28
P_10848,0,0,2,0.968,0.417,1,1,29
P_10848,0,0,2,0.917,0.35,1,1,30
P_10848,0,0,2,1.017,0.334,1,1,31
P_10848,0,0,2,0.934,0.267,1,1,32
P_10848,0,0,3,0.917,0.834,1,1,33
P_10848,0,0,2,0.8,0.451,1,1,34
P_10848,0,0,2,0.734,0.4,1,1,35
P_10848,0,0,2,1.567,0.484,1,1,36
P_10848,1,1,2,0.934,0.284,2,1,1
P_10848,1,1,2,1.368,0.417,2,1,2
P_10848,1,1,2,0.85,0.417,2,1,3
P_10848,1,0,2,0.818,0.35,2,0,4
P_10848,1,1,3,1.634,0.517,2,1,5
P_10848,1,0,2,0.8,0.317,2,0,6
P_10848,1,1,2,2.034,0.3,2,1,7
P_10848,1,1,2,1.1,0.417,2,1,8
P_10848,1,1,2,0.95,0.417,2,1,9
P_10848,1,1,2,1.718,0.3,1,1,10
P_10848,1,0,3,1.267,0.317,1,0,11
P_10848,1,1,2,0.984,0.45,1,1,12
P_10848,1,1,2,1.029,0.567,1,1,13
P_10848,1,0,2,1.384,0.35,1,0,14
P_10848,1,1,2,0.934,1,1,1,15
P_10848,1,1,2,1,0.334,1,1,16
P_10848,1,0,2,0.767,0.334,1,0,17
P_10848,1,1,2,0.917,0.334,1,1,18
P_10848,0,0,2,0.767,0.384,2,1,19
P_10848,0,0,2,0.75,0.284,2,1,20
P_10848,0,0,2,1.051,0.701,2,1,21
P_10848,0,0,2,0.751,0.3,2,1,22
P_10848,0,0,2,0.751,0.384,2,1,23
P_10848,0,0,2,0.9,0.434,2,1,24
P_10848,0,0,2,0.75,0.434,2,1,25
P_10848,0,0,2,0.75,0.484,2,1,26
P_10848,0,0,2,1.084,1.067,2,1,27
P_10848,0,0,2,1.051,0.417,1,1,28
P_10848,0,0,2,0.767,0.367,1,1,29
P_10848,0,0,2,0.734,0.3,1,1,30
P_10848,0,0,2,0.8,0.334,1,1,31
P_10848,0,0,3,0.7,0.3,1,1,32
P_10848,0,0,2,0.867,0.367,1,1,33
P_10848,0,0,2,0.75,0.317,1,1,34
P_10848,0,0,2,0.934,0.45,1,1,35
P_10848,0,0,2,0.834,0.45,1,1,36
madu,1,1,2,1.028,0.773,2,1,1
madu,1,1,4,1.135,0.644,2,1,2
madu,1,1,4,0.985,0.528,2,1,3
madu,1,1,4,1.212,0.371,2,1,4
madu,1,1,4,1.028,0.755,2,1,5
madu,1,1,4,1,0.433,2,1,6
madu,1,1,4,1.169,0.87,2,1,7
madu,1,0,4,2.153,0.827,2,0,8
madu,1,1,4,1.765,0.463,2,1,9
madu,1,1,3,1.421,1.168,1,1,10
madu,1,1,2,1.072,0.972,1,1,11
madu,1,0,2,0.978,0.704,1,0,12
madu,1,1,2,1.062,1.289,1,1,13
madu,1,1,4,0.915,0.938,1,1,14
madu,1,1,4,1.045,0.805,1,1,15
madu,1,1,2,1.179,1.141,1,1,16
madu,1,1,2,1.228,1.714,1,1,17
madu,1,0,2,1.464,0.736,1,0,18
madu,0,0,4,1.521,0.575,2,1,19
madu,0,0,4,0.917,0.62,2,1,20
madu,0,0,4,1.651,0.984,2,1,21
madu,0,0,4,1.062,0.388,2,1,22
madu,0,0,4,0.984,1.149,2,1,23
madu,0,0,4,0.9,0.645,2,1,24
madu,0,0,4,1.004,0.592,2,1,25
madu,0,0,4,0.953,0.398,2,1,26
madu,0,0,4,0.957,0.875,2,1,27
madu,0,0,2,1.541,1.094,1,1,28
madu,0,0,2,1.071,0.794,1,1,29
madu,0,0,4,0.915,0.419,1,1,30
madu,0,0,2,0.928,0.556,1,1,31
madu,0,0,2,0.928,1.121,1,1,32
madu,0,0,2,1.211,1.055,1,1,33
madu,0,0,4,1.299,0.531,1,1,34
madu,0,0,2,1,1.215,1,1,35
madu,0,0,3,1.108,0.942,1,1,36
madu,1,1,4,1.675,0.372,2,1,1
madu,1,1,4,0.794,0.371,2,1,2
madu,1,1,4,1.062,1.539,2,1,3
madu,1,1,4,0.834,0.748,2,1,4
madu,1,1,4,0.914,0.461,2,1,5
madu,1,1,2,1.238,0.946,2,1,6
madu,1,0,4,0.976,0.773,2,0,7
madu,1,1,4,0.994,1.122,2,1,8
madu,1,1,4,1.002,0.849,2,1,9
madu,1,1,4,1.012,1.467,1,1,10
madu,1,1,2,1.079,0.505,1,1,11
madu,1,0,3,1.304,1.579,1,0,12
madu,1,0,4,1.242,1.557,1,0,13
madu,1,1,4,0.615,0.41,1,1,14
madu,1,1,4,0.901,0.904,1,1,15
madu,1,1,2,1.062,0.642,1,1,16
madu,1,1,2,1.193,0.741,1,1,17
madu,1,1,2,1.093,0.806,1,1,18
madu,0,0,4,1.743,1.065,2,1,19
madu,0,0,4,1.701,0.466,2,1,20
madu,0,0,4,1.037,0.663,2,1,21
madu,0,0,4,0.956,1.118,2,1,22
madu,0,0,4,0.897,0.37,2,1,23
madu,0,0,4,1.086,0.528,2,1,24
madu,0,0,4,0.949,0.417,2,1,25
madu,0,0,4,0.927,1.079,2,1,26
madu,0,0,4,1.479,0.488,2,1,27
madu,0,0,4,1.066,0.891,1,1,28
madu,0,0,2,2.269,1.665,1,1,29
madu,0,0,2,1.125,0.591,1,1,30
madu,0,0,4,1.174,0.41,1,1,31
madu,0,0,4,0.996,0.353,1,1,32
madu,0,0,3,0.89,0.793,1,1,33
madu,0,0,3,1.076,0.785,1,1,34
madu,0,0,2,1.072,0.875,1,1,35
madu,0,0,4,0.982,1.248,1,1,36
madu,1,1,4,1.3,0.017,2,1,1
madu,1,1,4,0.795,0.338,2,1,2
madu,1,1,4,0.911,0.271,2,1,3
madu,1,1,4,1.247,0.737,2,1,4
madu,1,1,4,1.454,0.528,2,1,5
madu,1,1,3,1.538,0.528,2,1,6
madu,1,1,2,1.105,1.012,2,1,7
madu,1,1,3,1.031,1.188,2,1,8
madu,1,0,3,1.032,0.532,2,0,9
madu,1,1,3,0.914,0.368,1,1,10
madu,1,1,3,1.29,0.592,1,1,11
madu,1,1,2,1.28,0.599,1,1,12
madu,1,1,2,1.054,0.429,1,1,13
madu,1,0,3,1.441,0.416,1,0,14
madu,1,1,3,1.381,0.748,1,1,15
madu,1,0,3,2.912,0.669,1,0,16
madu,1,0,2,1.327,0.53,1,0,17
madu,1,0,4,0.956,0.778,1,0,18
madu,0,1,4,1.328,0.395,2,0,19
madu,0,0,4,0.905,0.328,2,1,20
madu,0,0,4,0.839,0.734,2,1,21
madu,0,0,4,0.98,0.823,2,1,22
madu,0,0,4,0.913,0.561,2,1,23
madu,0,0,4,0.909,0.95,2,1,24
madu,0,0,3,0.912,0.388,2,1,25
madu,0,0,4,0.89,1.374,2,1,26
madu,0,0,4,0.881,0.782,2,1,27
madu,0,0,2,0.901,0.817,1,1,28
madu,0,0,2,1.414,1.287,1,1,29
madu,0,0,2,1.988,0.575,1,1,30
madu,0,0,2,1.04,0.327,1,1,31
madu,0,0,2,0.79,0.543,1,1,32
madu,0,0,3,1.012,1.105,1,1,33
madu,0,0,4,1.302,1.032,1,1,34
madu,0,0,4,0.829,0.419,1,1,35
madu,0,0,3,0.907,0.574,1,1,36
mg1504,1,0,3,1.189,2.495,2,0,1
mg1504,1,1,3,1.151,0.999,2,1,2
mg1504,1,1,3,1.201,0.832,2,1,3
mg1504,1,1,2,1.181,1.786,2,1,4
mg1504,1,1,3,0.955,0.445,2,1,5
mg1504,1,0,3,1.781,1.803,2,0,6
mg1504,1,1,2,1.227,0.875,2,1,7
mg1504,1,0,2,1.054,0.827,2,0,8
mg1504,1,0,2,1.1,1.258,2,0,9
mg1504,1,0,2,1.578,1.171,1,0,10
mg1504,1,1,3,1.209,0.849,1,1,11
mg1504,1,0,2,1.467,1.691,1,0,12
mg1504,1,0,2,1.04,0.759,1,0,13
mg1504,1,0,2,1.111,0.436,1,0,14
mg1504,1,1,2,1.634,0.643,1,1,15
mg1504,1,0,3,0.994,2.256,1,0,16
mg1504,1,1,3,1.123,0.394,1,1,17
mg1504,1,1,2,2.017,1.267,1,1,18
mg1504,0,0,3,1.344,0.622,2,1,19
mg1504,0,0,3,0.963,0.755,2,1,20
mg1504,0,0,3,1.026,1.625,2,1,21
mg1504,0,0,3,1.008,1.493,2,1,22
mg1504,0,0,3,1.122,0.912,2,1,23
mg1504,0,0,3,1.076,0.78,2,1,24
mg1504,0,0,2,1.274,1.761,2,1,25
mg1504,0,0,3,1.316,1.717,2,1,26
mg1504,0,0,3,1.036,0.897,2,1,27
mg1504,0,1,2,2.244,0.823,1,0,28
mg1504,0,0,2,1.07,0.997,1,1,29
mg1504,0,0,2,1.096,1.761,1,1,30
mg1504,0,0,2,0.994,0.999,1,1,31
mg1504,0,0,2,1.954,1.78,1,1,32
mg1504,0,0,2,1.288,1.75,1,1,33
mg1504,0,0,3,0.944,2.492,1,1,34
mg1504,0,0,2,1.088,1.562,1,1,35
mg1504,0,0,2,0.935,1.182,1,1,36
mg1504,1,0,3,1.071,1.08,2,0,1
mg1504,1,0,3,0.885,1.188,2,0,2
mg1504,1,1,3,1.151,1.26,2,1,3
mg1504,1,1,2,1.016,1.183,2,1,4
mg1504,1,1,2,1.188,1.644,2,1,5
mg1504,1,0,2,1.193,0.655,2,0,6
mg1504,1,0,3,1.011,1.887,2,0,7
mg1504,1,0,3,1.882,0.017,2,0,8
mg1504,1,0,3,1.132,0.668,2,0,9
mg1504,1,1,NaN,1.776,NaN,1,1,10
mg1504,1,1,3,1.752,0.581,1,1,11
mg1504,1,1,2,1.26,1.463,1,1,12
mg1504,1,1,3,0.81,1.691,1,1,13
mg1504,1,1,2,1.301,0.781,1,1,14
mg1504,1,0,2,0.906,1.624,1,0,15
mg1504,1,0,3,0.949,1.468,1,0,16
mg1504,1,1,3,1.152,0.138,1,1,17
mg1504,1,0,3,0.965,1.032,1,0,18
mg1504,0,1,3,1.903,0.897,2,0,19
mg1504,0,0,NaN,1.171,NaN,2,1,20
mg1504,0,0,2,1.075,0.915,2,1,21
mg1504,0,0,3,2.01,0.597,2,1,22
mg1504,0,0,3,0.88,1.37,2,1,23
mg1504,0,0,2,0.979,0.737,2,1,24
mg1504,0,0,3,0.996,1.637,2,1,25
mg1504,0,0,2,1.289,0.578,2,1,26
mg1504,0,0,2,1.009,1.168,2,1,27
mg1504,0,0,3,0.918,0.899,1,1,28
mg1504,0,0,3,1.002,1.505,1,1,29
mg1504,0,0,2,1.1,0.456,1,1,30
mg1504,0,0,3,0.929,1.289,1,1,31
mg1504,0,0,2,1.419,2.544,1,1,32
mg1504,0,0,2,0.958,0.759,1,1,33
mg1504,0,0,2,1.51,0.825,1,1,34
mg1504,0,0,2,1.792,1.514,1,1,35
mg1504,0,0,2,1.023,0.91,1,1,36
mg1504,1,1,4,1.249,0.351,2,1,1
mg1504,1,1,4,1.476,0.508,2,1,2
mg1504,1,1,3,1.08,1.989,2,1,3
mg1504,1,0,4,0.944,1.023,2,0,4
mg1504,1,0,4,1.605,0.69,2,0,5
mg1504,1,0,3,1.362,0.805,2,0,6
mg1504,1,1,3,1.226,0.738,2,1,7
mg1504,1,1,3,1.495,0.489,2,1,8
mg1504,1,0,3,1.104,1.297,2,0,9
mg1504,1,1,3,1.155,1.712,1,1,10
mg1504,1,0,2,1.108,1.308,1,0,11
mg1504,1,1,4,0.947,0.737,1,1,12
mg1504,1,0,3,1.864,1.589,1,0,13
mg1504,1,1,4,1.118,0.716,1,1,14
mg1504,1,1,4,1.135,0.295,1,1,15
mg1504,1,0,3,1.391,0.443,1,0,16
mg1504,1,0,2,1.489,0.869,1,0,17
mg1504,1,0,3,0.973,1.091,1,0,18
mg1504,0,0,4,0.922,0.984,2,1,19
mg1504,0,0,4,1.015,1.502,2,1,20
mg1504,0,0,3,0.985,0.799,2,1,21
mg1504,0,0,4,0.939,1.077,2,1,22
mg1504,0,0,4,0.906,0.728,2,1,23
mg1504,0,0,4,0.968,1.332,2,1,24
mg1504,0,0,4,1.061,0.771,2,1,25
mg1504,0,0,3,1.036,0.398,2,1,26
mg1504,0,1,3,1.117,0.827,2,0,27
mg1504,0,1,2,1.274,1.059,1,0,28
mg1504,0,0,2,0.967,0.782,1,1,29
mg1504,0,0,4,1.232,1.168,1,1,30
mg1504,0,0,2,0.902,0.898,1,1,31
mg1504,0,0,4,0.957,0.528,1,1,32
mg1504,0,0,4,0.986,0.804,1,1,33
mg1504,0,0,3,0.957,0.955,1,1,34
mg1504,0,0,3,1.023,0.794,1,1,35
mg1504,0,0,2,0.97,1.624,1,1,36
mk0309,1,1,2,0.959,0.922,2,1,1
mk0309,1,1,3,1.335,2.082,2,1,2
mk0309,1,0,3,1.099,1.169,2,0,3
mk0309,1,1,3,1.544,0.597,2,1,4
mk0309,1,1,2,1.828,1.826,2,1,5
mk0309,1,0,2,1.635,1.099,2,0,6
mk0309,1,1,3,1.088,0.56,2,1,7
mk0309,1,0,3,1.415,0.418,2,0,8
mk0309,1,1,3,0.999,0.323,2,1,9
mk0309,1,1,2,1.228,0.605,1,1,10
mk0309,1,0,2,1.276,0.749,1,0,11
mk0309,1,0,1,1.064,1.343,1,0,12
mk0309,1,1,2,1.767,1.921,1,1,13
mk0309,1,0,2,1.3,1.032,1,0,14
mk0309,1,1,2,1.245,2.707,1,1,15
mk0309,1,1,2,1.666,0.701,1,1,16
mk0309,1,0,2,1.362,0.94,1,0,17
mk0309,1,0,2,1.001,0.716,1,0,18
mk0309,0,0,2,0.897,0.237,2,1,19
mk0309,0,0,3,1.345,1.138,2,1,20
mk0309,0,0,3,0.839,0.26,2,1,21
mk0309,0,0,3,1.425,0.158,2,1,22
mk0309,0,0,2,1.163,0.669,2,1,23
mk0309,0,NaN,3,NaN,0.351,2,0,24
mk0309,0,0,3,0.859,0.191,2,1,25
mk0309,0,0,3,1.13,0.577,2,1,26
mk0309,0,0,3,1.092,0.557,2,1,27
mk0309,0,0,2,0.902,0.465,1,1,28
mk0309,0,0,2,0.994,0.637,1,1,29
mk0309,0,0,2,1.025,1.007,1,1,30
mk0309,0,0,2,1.017,1.167,1,1,31
mk0309,0,0,2,0.998,0.731,1,1,32
mk0309,0,0,2,0.923,0.51,1,1,33
mk0309,0,0,3,1.278,1.022,1,1,34
mk0309,0,0,2,0.99,0.778,1,1,35
mk0309,0,0,2,1.137,1.878,1,1,36
mk0309,1,0,2,1.083,0.717,2,0,1
mk0309,1,1,3,1.019,1.055,2,1,2
mk0309,1,1,3,0.882,0.515,2,1,3
mk0309,1,1,2,1.282,0.891,2,1,4
mk0309,1,0,3,2.479,0.07,2,0,5
mk0309,1,0,2,0.969,0.577,2,0,6
mk0309,1,0,2,1.176,0.508,2,0,7
mk0309,1,1,2,1.011,0.456,2,1,8
mk0309,1,1,3,1.145,0.073,2,1,9
mk0309,1,1,2,0.968,0.898,1,1,10
mk0309,1,0,2,1.039,0.617,1,0,11
mk0309,1,1,3,1.066,0.518,1,1,12
mk0309,1,1,2,1.234,0.599,1,1,13
mk0309,1,1,2,1.014,0.117,1,1,14
mk0309,1,1,2,0.93,0.771,1,1,15
mk0309,1,1,3,0.931,0.486,1,1,16
mk0309,1,0,2,1.309,0.74,1,0,17
mk0309,1,1,3,0.836,0.28,1,1,18
mk0309,0,1,3,2.586,0.231,2,0,19
mk0309,0,0,3,0.953,0.964,2,1,20
mk0309,0,0,3,1.05,0.531,2,1,21
mk0309,0,0,3,1.469,0.389,2,1,22
mk0309,0,1,2,1.696,0.754,2,0,23
mk0309,0,1,3,1.004,0.396,2,0,24
mk0309,0,0,2,1.024,0.825,2,1,25
mk0309,0,1,2,1.077,0.713,2,0,26
mk0309,0,0,3,0.897,0.577,2,1,27
mk0309,0,0,2,1.041,1.193,1,1,28
mk0309,0,0,2,1.393,2.074,1,1,29
mk0309,0,0,2,1.073,0.14,1,1,30
mk0309,0,0,1,1.187,1.544,1,1,31
mk0309,0,0,2,1.23,0.271,1,1,32
mk0309,0,0,2,1.09,1.927,1,1,33
mk0309,0,0,3,0.918,0.437,1,1,34
mk0309,0,0,2,1.015,0.184,1,1,35
mk0309,0,1,2,0.952,1.264,1,0,36
mk0309,1,1,2,1.638,2.259,2,1,1
mk0309,1,1,2,1.116,1.401,2,1,2
mk0309,1,1,3,0.809,0.508,2,1,3
mk0309,1,1,3,1.323,0.478,2,1,4
mk0309,1,1,3,1.246,0.221,2,1,5
mk0309,1,0,3,1.314,0.234,2,0,6
mk0309,1,1,3,0.879,0.143,2,1,7
mk0309,1,1,3,0.967,0.826,2,1,8
mk0309,1,1,3,1.01,0.405,2,1,9
mk0309,1,1,2,0.913,0.636,1,1,10
mk0309,1,0,2,1.035,1.056,1,0,11
mk0309,1,1,2,0.814,0.799,1,1,12
mk0309,1,1,2,1.074,0.509,1,1,13
mk0309,1,1,3,0.818,0.232,1,1,14
mk0309,1,1,3,1.1,0.967,1,1,15
mk0309,1,0,2,1.156,0.294,1,0,16
mk0309,1,0,3,1.425,0.475,1,0,17
mk0309,1,0,3,1.184,0.533,1,0,18
mk0309,0,1,3,0.856,0.51,2,0,19
mk0309,0,0,3,0.83,0.459,2,1,20
mk0309,0,0,3,0.925,0.392,2,1,21
mk0309,0,1,3,2.15,0.071,2,0,22
mk0309,0,0,3,0.925,0.595,2,1,23
mk0309,0,0,3,0.945,0.421,2,1,24
mk0309,0,0,3,0.785,0.459,2,1,25
mk0309,0,1,4,1.391,1.213,2,0,26
mk0309,0,0,3,0.942,0.692,2,1,27
mk0309,0,0,3,0.887,0.515,1,1,28
mk0309,0,1,2,1.041,0.442,1,0,29
mk0309,0,0,2,1.056,0.825,1,1,30
mk0309,0,0,2,0.85,0.166,1,1,31
mk0309,0,0,2,0.925,0.23,1,1,32
mk0309,0,1,3,1.404,0.579,1,0,33
mk0309,0,1,3,1.02,0.329,1,0,34
mk0309,0,0,3,1.008,0.542,1,1,35
mk0309,0,0,3,0.901,0.649,1,1,36
NG,1,0,4,1.813,1.043,2,0,1
NG,1,1,2,1.211,1.669,2,1,2
NG,1,1,4,1.011,0.575,2,1,3
NG,1,1,4,1.15,1.39,2,1,4
NG,1,1,4,1.23,1.607,2,1,5
NG,1,1,4,1.25,0.44,2,1,6
NG,1,0,4,1.494,1.779,2,0,7
NG,1,1,4,1.417,0.368,2,1,8
NG,1,1,4,1.267,0.906,2,1,9
NG,1,1,4,0.863,0.391,1,1,10
NG,1,1,3,1.477,0.884,1,1,11
NG,1,1,2,1.447,1.776,1,1,12
NG,1,0,2,0.956,1.876,1,0,13
NG,1,1,4,1.067,0.455,1,1,14
NG,1,1,2,2.079,1.451,1,1,15
NG,1,1,2,1.064,0.904,1,1,16
NG,1,1,3,1.384,1.65,1,1,17
NG,1,1,3,2.014,0.389,1,1,18
NG,0,0,4,0.9,0.418,2,1,19
NG,0,0,4,1,0.342,2,1,20
NG,0,0,4,1.084,0.647,2,1,21
NG,0,0,4,1.881,0.675,2,1,22
NG,0,0,4,1.017,0.383,2,1,23
NG,0,0,4,1.244,0.388,2,1,24
NG,0,0,4,1.181,0.645,2,1,25
NG,0,0,4,1.1,0.581,2,1,26
NG,0,0,4,1.101,0.391,2,1,27
NG,0,0,3,1.227,1.752,1,1,28
NG,0,0,4,0.977,1.528,1,1,29
NG,0,0,3,0.98,0.559,1,1,30
NG,0,0,3,0.934,1.625,1,1,31
NG,0,0,4,1.234,0.765,1,1,32
NG,0,0,4,2.151,1.538,1,1,33
NG,0,0,4,0.95,1.11,1,1,34
NG,0,1,3,1.857,2.19,1,0,35
NG,0,0,2,1.311,1.006,1,1,36
NG,1,0,4,1.697,0.643,2,0,1
NG,1,0,4,2.214,0.329,2,0,2
NG,1,1,4,1.061,0.758,2,1,3
NG,1,1,4,2.614,0.839,2,1,4
NG,1,0,4,1.684,0.509,2,0,5
NG,1,0,4,1.151,0.385,2,0,6
NG,1,0,4,2.45,0.996,2,0,7
NG,1,1,3,1.207,1.045,2,1,8
NG,1,0,4,2.131,0.976,2,0,9
NG,1,1,3,1.314,0.533,1,1,10
NG,1,1,4,0.914,0.582,1,1,11
NG,1,1,3,1.551,1.461,1,1,12
NG,1,1,3,1.85,1.485,1,1,13
NG,1,1,3,0.997,0.97,1,1,14
NG,1,0,3,1.827,0.736,1,0,15
NG,1,1,4,1.084,0.692,1,1,16
