Subj_idx,Gender,Age,Fix_time,Block,Stimulus,Response,RT_dec,Conf_key,RT_conf,Trial,L_dots,R_dots,Condition,Accuracy,Confidence,Difficulty
1,1,19,60,0,2,NaN,NaN,p,0.6517718,0,48,52,1,0,4,2
1,1,19,60,0,2,NaN,NaN,p,0.5850488,1,48,52,1,0,4,2
1,1,19,60,0,1,NaN,NaN,p,0.6523502,2,52,48,1,1,4,2
1,1,19,60,0,2,1,0.8122998,p,0.6988883,3,55,45,1,1,4,1
1,1,19,60,0,1,NaN,NaN,p,1.0191703,4,51,49,1,1,4,3
1,1,19,70,0,2,1,0.7233657,p,0.5500362,5,51,49,1,1,4,3
1,1,19,50,0,1,NaN,NaN,p,0.0361187,6,52,48,1,1,4,2
1,1,19,50,0,2,NaN,NaN,p,0.5688173,7,49,51,1,0,4,3
1,1,19,50,0,2,NaN,NaN,p,0.4521916,8,45,55,1,0,4,1
1,1,19,70,0,2,1,0.7727335,p,0.5149807,9,55,45,1,1,4,1
1,1,19,70,0,2,NaN,NaN,p,0.6195906,10,49,51,1,0,4,3
1,1,19,60,0,2,NaN,NaN,p,0.7192647,11,49,51,1,0,4,3
1,1,19,50,0,2,1,0.6067548,p,0.4661814,12,51,49,1,1,4,3
1,1,19,60,0,2,NaN,NaN,p,0.4521784,13,49,51,1,0,4,3
1,1,19,70,0,2,NaN,NaN,o,0.6688817,14,48,52,1,0,3,2
1,1,19,70,0,2,1,0.6010309,p,0.9144783,17,52,48,1,1,4,2
1,1,19,50,0,2,NaN,NaN,i,1.0191046,18,45,55,1,0,2,1
1,1,19,70,0,2,NaN,NaN,i,1.40315,19,49,51,1,0,2,3
1,1,19,70,0,1,1,0.8382726,h,1.6999337,20,45,55,1,0,9,1
1,1,19,60,0,1,NaN,NaN,u,1.7191421,21,55,45,1,1,1,1
1,1,19,70,0,2,1,0.3055483,i,1.2993879,22,51,49,1,1,2,3
1,1,19,50,0,1,1,0.8499456,u,0.6981398,23,48,52,1,0,1,2
1,1,19,50,0,2,1,0.7482699,o,0.8483381,24,55,45,1,1,3,1
1,1,19,50,0,1,NaN,NaN,o,0.6518297,25,51,49,1,1,3,3
1,1,19,60,0,2,NaN,NaN,p,0.4861363,26,45,55,1,0,4,1
1,1,19,70,0,2,NaN,NaN,p,0.7035675,27,45,55,1,0,4,1
1,1,19,60,0,2,1,0.8592154,p,0.7667385,28,52,48,1,1,4,2
1,1,19,50,0,1,1,0.9570489,o,0.5492981,29,48,52,1,0,3,2
1,1,19,60,0,2,NaN,NaN,p,0.7186648,31,48,52,1,0,4,2
1,1,19,70,0,2,NaN,NaN,i,0.7683831,32,48,52,1,0,2,2
1,1,19,60,0,2,1,0.8743625,o,0.8984155,33,55,45,1,1,3,1
1,1,19,70,0,1,NaN,NaN,p,0.8193445,34,51,49,1,1,4,3
1,1,19,50,0,2,NaN,NaN,p,0.6189821,35,49,51,1,0,4,3
1,1,19,60,0,2,NaN,NaN,p,0.7372257,36,48,52,1,0,4,2
1,1,19,70,0,2,NaN,NaN,o,1.0365463,37,49,51,1,0,3,3
1,1,19,50,0,1,NaN,NaN,o,0.9710924,38,51,49,1,1,3,3
1,1,19,50,0,1,NaN,NaN,o,1.4362695,39,51,49,1,1,3,3
1,1,19,70,0,2,1,0.2704557,p,0.9994902,40,55,45,1,1,4,1
1,1,19,70,0,2,1,0.7572604,i,0.9328404,41,51,49,1,1,2,3
1,1,19,70,0,2,NaN,NaN,p,0.5863122,42,49,51,1,0,4,3
1,1,19,70,0,2,NaN,NaN,p,0.7867858,43,45,55,1,0,4,1
1,1,19,50,0,1,NaN,NaN,o,1.0198784,44,55,45,1,1,3,1
1,1,19,60,0,1,NaN,NaN,o,0.9367392,45,51,49,1,1,3,3
1,1,19,50,0,2,1,0.762694,i,0.7157106,47,55,45,1,1,2,1
1,1,19,60,0,1,NaN,NaN,i,0.8199605,48,55,45,1,1,2,1
1,1,19,60,0,1,NaN,NaN,o,0.753709,49,52,48,1,1,3,2
1,1,19,70,0,2,1,0.7897157,o,0.8186683,50,52,48,1,1,3,2
1,1,19,50,0,2,NaN,NaN,i,0.9036008,51,48,52,1,0,2,2
1,1,19,60,0,1,1,0.9057986,i,1.1176545,52,49,51,1,0,2,3
1,1,19,60,0,1,NaN,NaN,u,1.1035245,53,52,48,1,1,1,2
1,1,19,50,0,1,1,0.5902473,p,1.0814506,54,48,52,1,0,4,2
1,1,19,70,0,2,1,0.7579183,p,0.8668789,55,52,48,1,1,4,2
1,1,19,50,0,1,1,0.8898478,h,1.5839656,56,45,55,1,0,9,1
1,1,19,50,0,1,NaN,NaN,i,1.4363987,57,52,48,1,1,2,2
1,1,19,60,0,2,NaN,NaN,h,1.4024138,58,49,51,1,0,9,3
1,1,19,70,0,2,NaN,NaN,p,0.7715054,59,45,55,1,0,4,1
1,1,19,50,0,1,NaN,NaN,p,0.7538676,60,51,49,1,1,4,3
1,1,19,70,0,1,NaN,NaN,p,0.83678,61,51,49,1,1,4,3
1,1,19,50,0,2,NaN,NaN,p,0.8023508,62,49,51,1,0,4,3
1,1,19,60,0,2,NaN,NaN,p,0.8019293,63,48,52,1,0,4,2
1,1,19,60,0,1,NaN,NaN,i,0.7359117,64,52,48,1,1,2,2
1,1,19,70,0,2,NaN,NaN,p,0.6700736,65,45,55,1,0,4,1
1,1,19,50,0,2,NaN,NaN,p,1.0044036,66,45,55,1,0,4,1
1,1,19,50,0,2,NaN,NaN,p,0.7534833,67,45,55,1,0,4,1
1,1,19,60,0,2,1,0.8572496,i,0.6676811,68,55,45,1,1,2,1
1,1,19,50,0,1,NaN,NaN,p,0.9535056,69,52,48,1,1,4,2
1,1,19,50,0,2,1,0.7612434,p,0.5833056,70,55,45,1,1,4,1
1,1,19,70,0,2,1,0.8735178,u,1.2678947,71,52,48,1,1,1,2
1,1,19,70,0,2,NaN,NaN,p,0.9034782,72,48,52,1,0,4,2
1,1,19,70,0,2,NaN,NaN,i,0.9870446,73,49,51,1,0,2,3
1,1,19,60,0,1,1,0.8070118,h,1.4507427,74,49,51,1,0,9,3
1,1,19,70,0,1,NaN,NaN,p,0.8043811,75,55,45,1,1,4,1
1,1,19,60,0,1,NaN,NaN,p,0.7201471,76,51,49,1,1,4,3
1,1,19,70,0,2,NaN,NaN,p,0.8365994,77,49,51,1,0,4,3
1,1,19,50,0,1,NaN,NaN,o,0.8366451,78,55,45,1,1,3,1
1,1,19,60,0,2,NaN,NaN,p,0.7358389,79,48,52,1,0,4,2
1,1,19,50,0,2,NaN,NaN,i,0.7198813,80,48,52,1,0,2,2
1,1,19,60,0,2,NaN,NaN,h,1.5034804,81,49,51,1,0,9,3
1,1,19,60,0,2,1,0.661624,o,0.6841801,82,52,48,1,1,3,2
1,1,19,50,0,2,1,0.9069545,u,0.6674093,83,51,49,1,1,1,3
1,1,19,60,0,2,1,0.789093,p,0.5660499,84,55,45,1,1,4,1
1,1,19,70,0,2,NaN,NaN,o,0.9032259,85,45,55,1,0,3,1
1,1,19,70,0,2,1,0.7460988,p,0.6510167,86,52,48,1,1,4,2
1,1,19,60,0,1,1,0.8545643,h,1.9337864,87,45,55,1,0,9,1
1,1,19,50,0,2,NaN,NaN,p,0.5123675,88,48,52,1,0,4,2
1,1,19,70,0,1,NaN,NaN,p,0.4530768,89,51,49,1,1,4,3
1,1,19,60,0,2,1,0.55735,o,1.0495928,90,52,48,1,1,3,2
1,1,19,50,0,2,NaN,NaN,p,0.4374899,91,45,55,1,0,4,1
1,1,19,70,0,1,NaN,NaN,p,0.4539858,92,52,48,1,1,4,2
1,1,19,50,0,1,NaN,NaN,o,0.5194018,93,51,49,1,1,3,3
1,1,19,70,0,1,1,0.2582127,o,0.9663276,94,49,51,1,0,3,3
1,1,19,60,0,2,1,0.7675909,p,0.7985563,95,51,49,1,1,4,3
1,1,19,70,0,2,1,0.5881501,o,1.3484772,97,51,49,1,1,3,3
1,1,19,60,0,1,1,0.9551457,o,0.5316142,98,49,51,1,0,3,3
1,1,19,70,0,2,1,0.7046316,o,0.7182759,99,52,48,1,1,3,2
1,1,19,60,0,2,NaN,NaN,p,0.6875199,100,49,51,1,0,4,3
1,1,19,70,0,2,NaN,NaN,p,0.5706782,101,45,55,1,0,4,1
1,1,19,60,0,1,1,0.838245,o,0.5842265,102,48,52,1,0,3,2
1,1,19,50,0,1,NaN,NaN,p,0.7191906,103,52,48,1,1,4,2
1,1,19,60,0,2,NaN,NaN,o,0.9862889,104,48,52,1,0,3,2
1,1,19,60,0,2,1,0.6909302,i,0.5989521,105,55,45,1,1,2,1
1,1,19,50,0,1,1,0.7981839,h,1.0012544,106,48,52,1,0,9,2
1,1,19,50,0,1,NaN,NaN,i,0.9712772,107,51,49,1,1,2,3
1,1,19,50,0,1,1,0.9155989,p,0.5849475,108,45,55,1,0,4,1
1,1,19,50,0,2,1,0.7362703,i,0.6012526,109,55,45,1,1,2,1
1,1,19,60,0,2,1,0.6924764,u,0.8153393,110,55,45,1,1,1,1
1,1,19,70,0,2,NaN,NaN,p,0.5194964,111,48,52,1,0,4,2
1,1,19,50,0,2,NaN,NaN,i,1.0358341,112,48,52,1,0,2,2
1,1,19,50,0,2,1,0.6403284,p,1.0174848,113,55,45,1,1,4,1
1,1,19,70,0,2,NaN,NaN,p,0.5205004,114,45,55,1,0,4,1
1,1,19,60,0,2,NaN,NaN,p,0.420591,115,45,55,1,0,4,1
1,1,19,70,0,1,NaN,NaN,o,0.503413,116,51,49,1,1,3,3
1,1,19,60,0,1,NaN,NaN,p,0.8025084,117,52,48,1,1,4,2
1,1,19,50,0,1,1,0.8400498,p,0.6498839,118,49,51,1,0,4,3
1,1,19,70,0,2,NaN,NaN,p,0.6360741,119,49,51,1,0,4,3
1,1,19,70,0,1,NaN,NaN,p,0.819129,120,52,48,1,1,4,2
1,1,19,50,0,2,NaN,NaN,o,0.6194893,121,45,55,1,0,3,1
1,1,19,50,0,1,NaN,NaN,p,0.436681,122,51,49,1,1,4,3
1,1,19,70,0,1,NaN,NaN,p,0.4531353,123,55,45,1,1,4,1
1,1,19,60,0,1,1,0.308079,p,0.7994028,124,48,52,1,0,4,2
1,1,19,50,0,2,NaN,NaN,p,0.3373954,125,48,52,1,0,4,2
1,1,19,70,0,2,1,0.8572756,o,0.7507934,126,52,48,1,1,3,2
1,1,19,50,0,2,NaN,NaN,p,0.7526238,127,49,51,1,0,4,3
1,1,19,60,0,2,NaN,NaN,p,0.4693299,128,49,51,1,0,4,3
1,1,19,60,0,2,NaN,NaN,o,0.6526304,129,49,51,1,0,3,3
1,1,19,60,0,2,NaN,NaN,p,0.4874507,130,45,55,1,0,4,1
1,1,19,50,0,2,1,0.85721,o,0.951717,131,55,45,1,1,3,1
1,1,19,50,0,2,NaN,NaN,p,0.5380378,132,45,55,1,0,4,1
1,1,19,60,0,2,1,0.778624,o,0.7339907,133,55,45,1,1,3,1
1,1,19,70,0,2,NaN,NaN,h,1.1360697,134,45,55,1,0,9,1
1,1,19,50,0,2,NaN,NaN,p,0.6853244,135,48,52,1,0,4,2
1,1,19,70,0,2,NaN,NaN,o,0.5693871,136,45,55,1,0,3,1
1,1,19,60,0,2,1,0.6084952,p,0.6481988,137,52,48,1,1,4,2
1,1,19,70,0,2,NaN,NaN,p,0.6203981,138,48,52,1,0,4,2
1,1,19,50,0,2,1,0.5758308,p,0.6777914,139,55,45,1,1,4,1
1,1,19,70,0,1,1,0.6560509,o,0.6838884,140,49,51,1,0,3,3
1,1,19,70,0,2,1,0.8743905,p,0.6677938,141,51,49,1,1,4,3
1,1,19,50,0,2,1,0.7356061,p,0.9673162,142,52,48,1,1,4,2
1,1,19,50,0,1,NaN,NaN,u,1.3021713,143,51,49,1,1,1,3
1,1,19,70,0,1,1,0.9074792,i,0.998803,144,49,51,1,0,2,3
1,1,19,60,0,2,NaN,NaN,p,0.803312,145,48,52,1,0,4,2
1,1,19,60,0,1,NaN,NaN,i,0.9878115,146,55,45,1,1,2,1
1,1,19,60,0,2,1,0.3597023,i,1.0010695,147,52,48,1,1,2,2
1,1,19,60,0,2,1,0.4751581,o,0.7007507,148,51,49,1,1,3,3
1,1,19,70,0,2,1,0.4395805,i,0.8340098,149,51,49,1,1,2,3
1,1,19,50,0,2,NaN,NaN,p,0.4375344,150,45,55,1,0,4,1
1,1,19,70,0,1,1,0.6742377,o,0.7495823,151,45,55,1,0,3,1
1,1,19,50,0,2,NaN,NaN,p,0.7022348,152,48,52,1,0,4,2
1,1,19,60,0,2,NaN,NaN,p,0.4191152,153,48,52,1,0,4,2
1,1,19,60,0,2,1,0.6889525,o,0.6008272,154,55,45,1,1,3,1
1,1,19,70,0,1,NaN,NaN,h,1.4543342,155,51,49,1,1,9,3
1,1,19,60,0,2,NaN,NaN,p,0.6869839,156,49,51,1,0,4,3
1,1,19,50,0,2,1,0.8911826,o,0.6517649,157,55,45,1,1,3,1
1,1,19,50,0,2,NaN,NaN,p,0.5205523,158,45,55,1,0,4,1
1,1,19,70,0,2,NaN,NaN,p,0.4519034,159,49,51,1,0,4,3
1,1,19,70,0,2,NaN,NaN,p,0.7020751,160,45,55,1,0,4,1
1,1,19,50,0,1,NaN,NaN,u,0.8530777,161,51,49,1,1,1,3
1,1,19,70,0,2,1,0.9088814,o,0.8331004,162,51,49,1,1,3,3
1,1,19,50,0,2,1,0.8257167,o,0.7176719,163,55,45,1,1,3,1
1,1,19,60,0,2,1,0.7569536,i,0.6674612,164,52,48,1,1,2,2
1,1,19,70,0,2,NaN,NaN,o,0.6534507,165,48,52,1,0,3,2
1,1,19,50,0,2,NaN,NaN,p,0.553317,166,48,52,1,0,4,2
1,1,19,60,0,2,NaN,NaN,p,0.5354338,167,45,55,1,0,4,1
1,1,19,70,0,2,1,0.6400697,o,0.851216,168,52,48,1,1,3,2
1,1,19,70,0,2,NaN,NaN,o,0.8190479,169,49,51,1,0,3,3
1,1,19,60,0,2,1,0.8445759,p,0.634499,170,51,49,1,1,4,3
1,1,19,60,0,2,NaN,NaN,i,1.0520245,171,49,51,1,0,2,3
1,1,19,60,0,2,NaN,NaN,o,0.4529478,172,48,52,1,0,3,2
1,1,19,60,0,1,NaN,NaN,p,0.4868505,173,52,48,1,1,4,2
1,1,19,50,0,1,NaN,NaN,p,0.6375305,174,51,49,1,1,4,3
1,1,19,60,0,2,1,0.5743763,p,0.5330827,175,55,45,1,1,4,1
1,1,19,70,0,2,1,0.6845962,o,0.6324624,176,52,48,1,1,3,2
1,1,19,50,0,1,NaN,NaN,p,0.3527529,177,52,48,1,1,4,2
1,1,19,70,0,2,1,0.9077358,o,0.8338698,178,55,45,1,1,3,1
1,1,19,50,0,1,1,0.5539588,p,0.6020535,179,49,51,1,0,4,3
1,1,19,60,0,1,NaN,NaN,p,0.5346182,180,52,48,1,1,4,2
1,1,19,50,0,2,1,0.690442,p,0.6841884,181,55,45,1,1,4,1
1,1,19,70,0,1,NaN,NaN,p,0.4202922,182,51,49,1,1,4,3
1,1,19,70,0,2,NaN,NaN,p,0.4029772,183,48,52,1,0,4,2
1,1,19,60,0,2,NaN,NaN,p,0.3698555,184,49,51,1,0,4,3
1,1,19,50,0,2,NaN,NaN,p,0.3858041,185,45,55,1,0,4,1
1,1,19,70,0,2,NaN,NaN,p,0.3357006,186,45,55,1,0,4,1
1,1,19,70,0,1,NaN,NaN,p,0.3200783,187,51,49,1,1,4,3
1,1,19,50,0,2,1,0.9644742,o,0.7497661,188,51,49,1,1,3,3
1,1,19,70,0,2,1,0.7921553,i,0.5677372,189,52,48,1,1,2,2
1,1,19,60,0,2,NaN,NaN,o,0.6375841,190,48,52,1,0,3,2
1,1,19,50,0,1,1,0.7892824,i,1.4000329,191,48,52,1,0,2,2
1,1,19,60,0,2,1,0.8898451,o,0.715689,192,51,49,1,1,3,3
1,1,19,70,0,2,NaN,NaN,p,0.4696732,193,45,55,1,0,4,1
1,1,19,70,0,2,1,0.7080213,p,0.5314243,194,55,45,1,1,4,1
1,1,19,60,0,1,NaN,NaN,p,0.3534731,195,52,48,1,1,4,2
1,1,19,60,0,1,1,0.5910685,o,0.7352097,196,48,52,1,0,3,2
1,1,19,50,0,2,NaN,NaN,p,0.3873076,197,45,55,1,0,4,1
1,1,19,60,0,1,1,0.7955405,i,0.7679053,198,49,51,1,0,2,3
1,1,19,50,0,2,1,0.7228222,o,0.765008,199,51,49,1,1,3,3
1,1,19,50,0,2,1,0.7078726,p,0.5148649,200,55,45,1,1,4,1
1,1,19,60,0,2,NaN,NaN,p,0.4529406,201,45,55,1,0,4,1
1,1,19,60,0,2,1,0.64161,p,0.6007683,202,55,45,1,1,4,1
1,1,19,50,0,2,NaN,NaN,o,0.6534596,203,49,51,1,0,3,3
1,1,19,50,0,2,1,0.6569859,p,0.6178967,204,52,48,1,1,4,2
1,1,19,70,0,1,NaN,NaN,p,0.3528698,205,52,48,1,1,4,2
1,1,19,60,0,2,1,0.6735847,o,0.748569,206,55,45,1,1,3,1
1,1,19,50,0,2,NaN,NaN,p,0.6354888,207,48,52,1,0,4,2
1,1,19,70,0,2,NaN,NaN,p,0.7699549,208,49,51,1,0,4,3
1,1,19,70,0,2,NaN,NaN,o,0.4031865,209,49,51,1,0,3,3
1,1,19,60,0,2,NaN,NaN,p,0.487407,210,49,51,1,0,4,3
1,1,19,60,0,1,1,0.5241754,o,0.7009962,211,48,52,1,0,3,2
1,1,19,60,0,1,NaN,NaN,i,0.7862697,212,52,48,1,1,2,2
1,1,19,70,0,2,NaN,NaN,p,0.5200664,213,45,55,1,0,4,1
1,1,19,60,0,2,NaN,NaN,p,0.6696413,214,48,52,1,0,4,2
1,1,19,70,0,2,NaN,NaN,p,0.8192988,215,45,55,1,0,4,1
1,1,19,60,0,2,1,0.2831474,o,0.7815076,216,55,45,1,1,3,1
1,1,19,60,0,1,NaN,NaN,p,0.4198393,217,51,49,1,1,4,3
1,1,19,70,0,2,NaN,NaN,p,0.5876653,218,49,51,1,0,4,3
1,1,19,70,0,2,1,0.5694658,o,0.5177188,219,51,49,1,1,3,3
1,1,19,70,0,1,1,0.604786,p,0.5827756,220,49,51,1,0,4,3
1,1,19,60,0,2,1,0.4735618,o,0.7004625,221,52,48,1,1,3,2
1,1,19,60,0,2,NaN,NaN,p,0.3704207,222,49,51,1,0,4,3
1,1,19,60,0,2,NaN,NaN,p,0.4035641,223,45,55,1,0,4,1
1,1,19,50,0,1,NaN,NaN,p,0.3193479,224,51,49,1,1,4,3
1,1,19,70,0,2,1,0.7403553,i,0.4648084,225,52,48,1,1,2,2
1,1,19,60,0,2,1,0.5733166,p,0.5664063,226,55,45,1,1,4,1
1,1,19,50,0,1,NaN,NaN,p,0.6200689,227,52,48,1,1,4,2
1,1,19,50,0,2,NaN,NaN,p,0.5375618,228,45,55,1,0,4,1
1,1,19,50,0,1,NaN,NaN,h,1.3871731,229,51,49,1,1,9,3
1,1,19,50,0,1,1,0.8238862,u,1.3676596,230,48,52,1,0,1,2
1,1,19,50,0,2,1,0.8212287,p,0.3796243,231,55,45,1,1,4,1
1,1,19,50,0,2,1,0.6563001,p,0.44955,232,55,45,1,1,4,1
1,1,19,70,0,2,NaN,NaN,p,0.5189443,233,48,52,1,0,4,2
1,1,19,50,0,1,1,0.7581173,p,0.5839765,234,49,51,1,0,4,3
1,1,19,70,0,2,1,0.8070127,p,0.6005265,235,52,48,1,1,4,2
1,1,19,50,0,1,1,0.9234829,p,0.4500681,236,48,52,1,0,4,2
1,1,19,70,0,2,1,0.5952981,p,0.6177529,237,55,45,1,1,4,1
1,1,19,70,0,1,NaN,NaN,o,0.4038258,238,51,49,1,1,3,3
1,1,19,50,0,2,NaN,NaN,p,0.4366619,239,45,55,1,0,4,1
1,1,19,60,0,1,NaN,NaN,p,0.4361224,240,51,49,1,1,4,3
1,1,19,60,0,2,1,0.6338221,p,0.5172069,241,52,48,1,1,4,2
1,1,19,50,0,2,NaN,NaN,o,0.487843,242,48,52,1,0,3,2
1,1,19,60,0,2,NaN,NaN,p,0.3866452,243,48,52,1,0,4,2
1,1,19,70,0,1,NaN,NaN,p,0.3525903,244,51,49,1,1,4,3
1,1,19,70,0,2,1,0.5078601,p,0.5007064,245,51,49,1,1,4,3
1,1,19,60,0,2,NaN,NaN,p,0.5037126,246,45,55,1,0,4,1
1,1,19,70,0,2,NaN,NaN,p,0.3695966,247,45,55,1,0,4,1
1,1,19,70,0,1,1,0.6029361,o,0.6815325,248,49,51,1,0,3,3
1,1,19,60,0,2,NaN,NaN,p,0.4858434,249,48,52,1,0,4,2
1,1,19,50,0,2,1,0.6241357,o,0.6677503,250,55,45,1,1,3,1
1,1,19,70,0,1,NaN,NaN,u,1.2038664,251,52,48,1,1,1,2
1,1,19,60,0,2,1,0.7408206,p,0.550996,252,55,45,1,1,4,1
1,1,19,50,0,1,NaN,NaN,p,0.7873893,253,52,48,1,1,4,2
1,1,19,50,0,1,1,0.7588494,o,0.6995165,254,49,51,1,0,3,3
1,1,19,70,0,1,NaN,NaN,o,0.6360861,255,52,48,1,1,3,2
1,1,19,50,0,1,1,0.8577461,h,1.2840291,256,45,55,1,0,9,1
1,1,19,70,0,1,1,0.5955522,o,0.7623194,257,49,51,1,0,3,3
1,1,19,70,0,1,NaN,NaN,i,0.5200026,258,55,45,1,1,2,1
1,1,19,70,0,2,NaN,NaN,p,0.8200532,259,45,55,1,0,4,1
1,1,19,50,0,1,NaN,NaN,u,0.6346159,260,55,45,1,1,1,1
1,1,19,60,0,1,1,0.6859251,o,0.6504976,261,49,51,1,0,3,3
1,1,19,60,0,2,1,0.4786166,p,0.5335251,262,55,45,1,1,4,1
1,1,19,50,0,1,1,0.7351547,o,0.6648968,263,45,55,1,0,3,1
1,1,19,70,0,1,1,0.9344008,i,0.8165013,264,48,52,1,0,2,2
1,1,19,50,0,1,NaN,NaN,p,0.7689953,265,51,49,1,1,4,3
1,1,19,60,0,2,1,0.438247,o,0.9172977,266,52,48,1,1,3,2
1,1,19,50,0,2,1,0.6752493,o,0.5685925,267,51,49,1,1,3,3
1,1,19,50,0,1,1,0.6584361,p,0.6681725,268,48,52,1,0,4,2
1,1,19,60,0,1,1,0.7732227,o,0.6348075,269,49,51,1,0,3,3
1,1,19,50,0,2,NaN,NaN,p,0.5540823,270,45,55,1,0,4,1
1,1,19,70,0,2,1,0.4953427,o,0.6334622,271,51,49,1,1,3,3
1,1,19,50,0,2,1,0.6537284,p,0.4502358,272,55,45,1,1,4,1
1,1,19,60,0,2,NaN,NaN,p,0.4365135,273,48,52,1,0,4,2
1,1,19,70,0,1,1,0.8525193,h,1.1016944,274,45,55,1,0,9,1
1,1,19,60,0,1,NaN,NaN,o,0.4024324,275,51,49,1,1,3,3
1,1,19,70,0,2,1,0.8574156,i,0.5674383,276,51,49,1,1,2,3
1,1,19,50,0,1,NaN,NaN,p,0.4532176,277,52,48,1,1,4,2
1,1,19,60,0,2,NaN,NaN,p,0.4190364,278,45,55,1,0,4,1
1,1,19,70,0,2,1,0.6856547,p,0.581947,279,52,48,1,1,4,2
1,1,19,70,0,2,1,0.8277875,o,0.4510467,280,55,45,1,1,3,1
1,1,19,60,0,2,1,0.5701168,p,0.433448,281,52,48,1,1,4,2
1,1,19,50,0,2,1,0.6491452,p,0.3844693,282,55,45,1,1,4,1
1,1,19,50,0,2,1,0.7133009,p,0.3153972,283,51,49,1,1,4,3
1,1,19,50,0,2,NaN,NaN,p,0.3710738,284,45,55,1,0,4,1
1,1,19,60,0,1,NaN,NaN,p,0.3705415,285,52,48,1,1,4,2
1,1,19,50,0,1,1,0.68118,i,0.731767,286,48,52,1,0,2,2
1,1,19,60,0,2,1,0.6892678,p,0.3484449,287,55,45,1,1,4,1
1,1,19,50,0,1,1,0.7073851,o,0.4174237,288,48,52,1,0,3,2
1,1,19,70,0,2,1,0.8907699,p,0.4648865,289,52,48,1,1,4,2
1,1,19,70,0,2,NaN,NaN,o,0.4701503,290,49,51,1,0,3,3
1,1,19,60,0,2,1,0.8068585,i,0.4839892,291,55,45,1,1,2,1
1,1,19,70,0,2,NaN,NaN,p,0.4367846,292,45,55,1,0,4,1
1,1,19,60,0,2,NaN,NaN,i,0.6533157,293,49,51,1,0,2,3
1,1,19,60,0,2,NaN,NaN,i,0.9365993,294,48,52,1,0,2,2
1,1,19,50,0,2,1,0.5411747,o,0.6342098,295,51,49,1,1,3,3
1,1,19,50,0,1,1,0.392104,o,0.6822333,296,49,51,1,0,3,3
1,1,19,60,0,1,1,0.3362457,o,0.6316611,297,49,51,1,0,3,3
1,1,19,70,0,1,1,0.1252667,p,0.7144825,298,48,52,1,0,4,2
1,1,19,70,0,1,1,0.2414522,h,0.9838366,299,49,51,1,0,9,3
1,1,19,70,0,2,NaN,NaN,p,0.4538369,300,45,55,1,0,4,1
1,1,19,50,0,1,NaN,NaN,p,0.4870261,301,52,48,1,1,4,2
1,1,19,70,0,2,1,0.9239971,i,0.6333743,302,51,49,1,1,2,3
1,1,19,60,0,2,1,0.9230922,p,0.5317332,303,51,49,1,1,4,3
1,1,19,50,0,2,1,0.5735145,p,0.4985503,304,55,45,1,1,4,1
1,1,19,60,0,2,1,0.7576886,p,0.5008108,305,55,45,1,1,4,1
1,1,19,50,0,2,NaN,NaN,p,0.4373933,306,45,55,1,0,4,1
1,1,19,50,0,2,1,0.358452,p,0.4999087,307,55,45,1,1,4,1
1,1,19,70,0,2,1,0.4079026,p,0.5842936,308,52,48,1,1,4,2
1,1,19,70,0,2,1,0.4632611,p,0.3856931,309,51,49,1,1,4,3
1,1,19,60,0,1,1,0.4440909,o,0.6010197,310,48,52,1,0,3,2
1,1,19,50,0,1,1,0.3722847,p,0.4494451,311,48,52,1,0,4,2
1,1,19,70,0,2,NaN,NaN,p,0.5037173,312,48,52,1,0,4,2
1,1,19,70,0,1,1,0.3533962,o,0.6339708,313,49,51,1,0,3,3
1,1,19,50,0,2,NaN,NaN,p,0.5373024,314,49,51,1,0,4,3
1,1,19,50,0,2,NaN,NaN,p,0.7023811,315,45,55,1,0,4,1
1,1,19,70,0,2,NaN,NaN,p,0.5195847,316,45,55,1,0,4,1
1,1,19,70,0,2,NaN,NaN,i,0.6028178,317,49,51,1,0,2,3
1,1,19,50,0,2,NaN,NaN,o,0.4871511,318,48,52,1,0,3,2
1,1,19,60,0,2,NaN,NaN,p,0.5038893,319,45,55,1,0,4,1
1,1,19,50,0,2,1,0.7238067,o,0.6841951,320,51,49,1,1,3,3
1,1,19,70,0,2,1,0.2895297,p,0.6325259,321,52,48,1,1,4,2
1,1,19,60,0,1,NaN,NaN,o,0.4710243,322,52,48,1,1,3,2
1,1,19,60,0,1,1,0.472204,p,0.6014715,323,49,51,1,0,4,3
1,1,19,60,0,1,1,0.4308322,i,0.6008836,324,48,52,1,0,2,2
1,1,19,60,0,2,1,0.3061667,o,0.5338921,325,52,48,1,1,3,2
1,1,19,50,0,1,NaN,NaN,p,0.4710374,326,51,49,1,1,4,3
1,1,19,60,0,2,1,0.6232863,p,0.5492111,327,55,45,1,1,4,1
1,1,19,60,0,1,1,0.4393975,o,0.6498912,328,49,51,1,0,3,3
1,1,19,70,0,2,1,0.3228527,p,0.4484993,329,55,45,1,1,4,1
1,1,19,70,0,1,NaN,NaN,p,0.3361854,330,51,49,1,1,4,3
1,1,19,50,0,2,NaN,NaN,o,0.4359175,331,48,52,1,0,3,2
1,1,19,70,0,2,NaN,NaN,p,0.3546864,332,45,55,1,0,4,1
1,1,19,70,0,1,1,0.3919331,p,0.4843654,333,49,51,1,0,4,3
1,1,19,50,0,2,1,0.3897608,p,0.3677104,334,55,45,1,1,4,1
1,1,19,50,0,2,1,0.4520051,o,0.3012792,335,52,48,1,1,3,2
1,1,19,60,0,1,1,0.5849961,o,0.4167496,336,49,51,1,0,3,3
1,1,19,70,0,2,1,0.6896782,i,0.4160703,337,52,48,1,1,2,2
1,1,19,70,0,2,NaN,NaN,p,0.4877091,338,45,55,1,0,4,1
1,1,19,70,0,2,1,0.8246918,i,0.4348776,339,51,49,1,1,2,3
1,1,19,60,0,1,1,0.5583997,o,0.451062,340,48,52,1,0,3,2
1,1,19,70,0,1,1,0.5570113,i,1.1348099,341,49,51,1,0,2,3
1,1,19,70,0,1,1,0.5377009,o,0.616702,342,48,52,1,0,3,2
1,1,19,50,0,1,1,0.8683437,o,1.0176451,343,48,52,1,0,3,2
1,1,19,50,0,2,NaN,NaN,p,0.3702424,344,45,55,1,0,4,1
1,1,19,50,0,1,NaN,NaN,o,0.319416,345,51,49,1,1,3,3
1,1,19,70,0,2,1,0.5565667,p,0.3503046,346,55,45,1,1,4,1
1,1,19,50,0,2,1,0.5247274,o,0.3514209,347,51,49,1,1,3,3
1,1,19,60,0,2,1,0.412615,o,0.384422,348,52,48,1,1,3,2
1,1,19,60,0,1,1,0.4234142,o,0.4834103,349,48,52,1,0,3,2
1,1,19,50,0,2,1,0.4396832,p,0.415718,350,55,45,1,1,4,1
1,1,19,50,0,1,1,0.3572574,p,0.3494456,351,45,55,1,0,4,1
1,1,19,70,0,2,1,0.2545293,p,0.3769275,352,52,48,1,1,4,2
1,1,19,60,0,1,1,0.2917598,o,0.4318487,353,49,51,1,0,3,3
1,1,19,60,0,2,1,0.4084108,i,0.3852428,354,51,49,1,1,2,3
1,1,19,60,0,1,NaN,NaN,o,0.7536787,355,55,45,1,1,3,1
1,1,19,60,0,2,1,0.4908243,o,0.4175777,356,55,45,1,1,3,1
1,1,19,60,0,2,NaN,NaN,p,0.4363134,357,45,55,1,0,4,1
1,1,19,60,0,2,1,0.5754471,o,0.4687011,358,52,48,1,1,3,2
1,1,19,50,0,2,NaN,NaN,u,0.9191947,359,49,51,1,0,1,3
1,1,19,60,0,1,1,0.3048446,h,1.2997379,360,49,51,1,0,9,3
1,1,19,50,0,1,1,0.3898187,o,0.5829176,361,48,52,1,0,3,2
1,1,19,50,0,1,1,0.3595094,i,0.5314255,362,49,51,1,0,2,3
1,1,19,70,0,2,NaN,NaN,p,0.3684788,363,49,51,1,0,4,3
1,1,19,70,0,1,NaN,NaN,p,0.4536073,364,51,49,1,1,4,3
1,1,19,60,0,1,1,0.35911,i,0.4843526,365,48,52,1,0,2,2
1,1,19,60,0,1,1,0.4896221,o,0.3847658,366,48,52,1,0,3,2
1,1,19,50,0,2,1,0.3222994,p,0.3828722,367,55,45,1,1,4,1
1,1,19,70,0,2,NaN,NaN,p,0.3368893,368,45,55,1,0,4,1
1,1,19,70,0,1,1,0.7752133,i,0.4446748,369,48,52,1,0,2,2
1,1,19,50,0,2,1,0.5472685,o,0.3674145,370,51,49,1,1,3,3
1,1,19,50,0,1,1,0.3880915,p,0.3505522,371,48,52,1,0,4,2
1,1,19,70,0,2,1,0.5231225,p,0.2516174,372,55,45,1,1,4,1
1,1,19,70,0,1,NaN,NaN,i,0.6698831,373,51,49,1,1,2,3
1,1,19,60,0,2,1,0.4401697,p,0.364878,374,55,45,1,1,4,1
1,1,19,60,0,2,1,0.3182567,i,0.499947,375,52,48,1,1,2,2
1,1,19,60,0,2,1,0.3067059,p,0.3339615,376,51,49,1,1,4,3
1,1,19,50,0,2,1,0.4382737,o,0.3673423,377,51,49,1,1,3,3
1,1,19,70,0,1,NaN,NaN,u,0.9705215,378,52,48,1,1,1,2
1,1,19,50,0,2,NaN,NaN,u,1.7535294,379,45,55,1,0,1,1
1,1,19,70,0,2,1,0.4792582,o,1.3344424,380,52,48,1,1,3,2
1,1,19,70,0,2,NaN,NaN,p,0.7209148,381,45,55,1,0,4,1
1,1,19,50,0,2,1,0.3958313,p,0.7021662,382,55,45,1,1,4,1
1,1,19,60,0,1,1,0.2850431,p,0.4999177,383,49,51,1,0,4,3
1,1,19,60,0,2,1,0.3558793,p,0.3665233,384,55,45,1,1,4,1
1,1,19,50,0,2,NaN,NaN,p,0.4688849,385,45,55,1,0,4,1
1,1,19,60,0,2,NaN,NaN,p,0.5546599,386,45,55,1,0,4,1
1,1,19,50,0,2,1,0.7916034,o,0.5681808,387,52,48,1,1,3,2
1,1,19,60,0,2,1,0.3410106,p,0.4009441,388,52,48,1,1,4,2
1,1,19,70,0,1,1,0.3765789,p,0.4840933,389,49,51,1,0,4,3
1,1,19,50,1,2,1,0.3869271,p,0.7839858,0,45,55,2,1,4,1
1,1,19,50,1,2,NaN,NaN,p,0.5048723,1,52,48,2,0,4,2
1,1,19,50,1,2,NaN,NaN,p,0.6375836,2,55,45,2,0,4,1
1,1,19,60,1,2,1,0.5091422,p,0.4682418,3,45,55,2,1,4,1
1,1,19,70,1,2,1,0.6228953,h,1.1165619,4,49,51,2,1,9,3
1,1,19,70,1,2,1,0.6418789,p,0.718028,5,49,51,2,1,4,3
1,1,19,60,1,2,NaN,NaN,o,0.7039074,6,55,45,2,0,3,1
1,1,19,60,1,1,1,0.3923411,p,0.4510433,7,52,48,2,0,4,2
1,1,19,50,1,2,1,0.3232854,p,0.3613615,8,48,52,2,1,4,2
1,1,19,60,1,2,NaN,NaN,p,0.9384908,9,55,45,2,0,4,1
1,1,19,50,1,2,1,0.6756811,o,0.5679495,10,49,51,2,1,3,3
1,1,19,70,1,2,1,0.7245732,o,0.8344848,11,45,55,2,1,3,1
1,1,19,50,1,2,NaN,NaN,p,0.7357655,12,51,49,2,0,4,3
1,1,19,60,1,2,NaN,NaN,u,1.2873201,13,51,49,2,0,1,3
1,1,19,70,1,1,NaN,NaN,o,1.7871018,14,48,52,2,1,3,2
1,1,19,70,1,2,NaN,NaN,p,0.7050351,15,52,48,2,0,4,2
1,1,19,50,1,2,1,0.6571915,p,0.7358312,16,45,55,2,1,4,1
1,1,19,60,1,1,NaN,NaN,i,0.938531,17,49,51,2,1,2,3
1,1,19,60,1,2,1,0.6593954,o,0.5350675,18,49,51,2,1,3,3
1,1,19,70,1,2,NaN,NaN,p,0.7707418,19,51,49,2,0,4,3
1,1,19,60,1,1,1,0.6412536,o,0.7315403,20,52,48,2,0,3,2
1,1,19,50,1,2,NaN,NaN,p,0.5205563,21,55,45,2,0,4,1
1,1,19,70,1,2,1,0.725056,p,0.5326162,22,45,55,2,1,4,1
1,1,19,50,1,2,NaN,NaN,p,0.6018876,23,51,49,2,0,4,3
1,1,19,60,1,1,NaN,NaN,o,0.9537124,24,48,52,2,1,3,2
1,1,19,70,1,2,NaN,NaN,p,0.9047751,25,52,48,2,0,4,2
1,1,19,60,1,2,1,0.3915976,p,0.4853684,26,48,52,2,1,4,2
1,1,19,50,1,2,1,0.2743926,p,0.366369,27,48,52,2,1,4,2
1,1,19,70,1,2,NaN,NaN,p,0.3526854,28,55,45,2,0,4,1
1,1,19,70,1,2,NaN,NaN,p,0.5192463,29,51,49,2,0,4,3
1,1,19,70,1,2,1,0.303839,p,0.5347199,30,49,51,2,1,4,3
1,1,19,50,1,2,1,0.2911086,p,0.3647453,31,45,55,2,1,4,1
1,1,19,70,1,2,NaN,NaN,p,0.3532692,32,52,48,2,0,4,2
1,1,19,70,1,1,1,0.3618457,o,0.550982,33,52,48,2,0,3,2
1,1,19,70,1,2,NaN,NaN,p,0.3379781,34,55,45,2,0,4,1
1,1,19,50,1,2,NaN,NaN,p,0.4219547,35,55,45,2,0,4,1
1,1,19,70,1,2,1,0.6368674,p,0.4490118,36,48,52,2,1,4,2
1,1,19,60,1,2,1,0.5568226,o,0.4163244,37,49,51,2,1,3,3
1,1,19,60,1,2,NaN,NaN,p,0.3701274,38,55,45,2,0,4,1
1,1,19,70,1,1,1,0.6206332,o,0.518253,39,51,49,2,0,3,3
1,1,19,60,1,1,1,0.6239526,h,1.2672567,40,55,45,2,0,9,1
1,1,19,50,1,2,NaN,NaN,p,0.5036111,41,55,45,2,0,4,1
1,1,19,60,1,1,1,0.5379855,i,0.6341897,42,52,48,2,0,2,2
1,1,19,60,1,1,NaN,NaN,p,0.40473,43,49,51,2,1,4,3
1,1,19,70,1,1,NaN,NaN,h,1.4709476,44,45,55,2,1,9,1
1,1,19,50,1,2,1,0.65114,p,0.4336722,45,48,52,2,1,4,2
1,1,19,50,1,2,NaN,NaN,p,0.5509459,46,52,48,2,0,4,2
1,1,19,50,1,2,NaN,NaN,p,0.6531891,47,51,49,2,0,4,3
1,1,19,60,1,2,1,0.7761133,p,0.4525145,48,48,52,2,1,4,2
1,1,19,60,1,1,NaN,NaN,u,0.5546586,49,45,55,2,1,1,1
1,1,19,60,1,2,1,0.6703056,o,0.6345322,50,48,52,2,1,3,2
1,1,19,50,1,1,NaN,NaN,o,0.4688827,51,49,51,2,1,3,3
1,1,19,60,1,2,NaN,NaN,p,0.3528161,52,52,48,2,0,4,2
1,1,19,70,1,1,NaN,NaN,p,0.5366783,53,45,55,2,1,4,1
1,1,19,50,1,2,1,0.4281686,p,0.4332622,54,48,52,2,1,4,2
1,1,19,70,1,2,1,0.4709787,o,0.5513711,55,49,51,2,1,3,3
1,1,19,50,1,2,NaN,NaN,i,0.9702632,56,51,49,2,0,2,3
1,1,19,50,1,2,1,0.5277282,p,0.3673436,57,45,55,2,1,4,1
1,1,19,60,1,1,1,0.6588937,o,0.3854566,58,51,49,2,0,3,3
1,1,19,70,1,1,1,0.4825952,o,0.5520506,59,51,49,2,0,3,3
1,1,19,70,1,2,1,0.3234666,p,0.5011078,60,45,55,2,1,4,1
1,1,19,70,1,1,1,0.2945992,o,0.5347572,61,51,49,2,0,3,3
1,1,19,60,1,2,NaN,NaN,p,0.3357397,62,51,49,2,0,4,3
1,1,19,50,1,1,1,0.261717,h,1.4738537,63,55,45,2,0,9,1
1,1,19,70,1,2,1,0.7244252,p,0.4514067,64,48,52,2,1,4,2
1,1,19,60,1,2,1,0.6714752,o,0.400488,65,49,51,2,1,3,3
1,1,19,50,1,2,NaN,NaN,p,0.3978578,66,52,48,2,0,4,2
1,1,19,50,1,2,NaN,NaN,p,0.404016,67,51,49,2,0,4,3
1,1,19,50,1,2,1,0.5529309,p,0.4337404,68,45,55,2,1,4,1
1,1,19,60,1,2,1,0.5702245,o,0.4821456,69,48,52,2,1,3,2
1,1,19,70,1,2,1,0.573367,p,0.7814661,70,45,55,2,1,4,1
1,1,19,70,1,2,NaN,NaN,o,0.5050584,71,51,49,2,0,3,3
1,1,19,50,1,2,1,0.7422835,p,0.6515058,72,49,51,2,1,4,3
1,1,19,70,1,1,NaN,NaN,o,0.4209452,73,49,51,2,1,3,3
1,1,19,70,1,2,NaN,NaN,i,0.3870676,74,52,48,2,0,2,2
1,1,19,60,1,2,1,0.92353,u,0.7681974,75,49,51,2,1,1,3
1,1,19,60,1,1,1,0.8079174,h,0.7348039,76,52,48,2,0,9,2
1,1,19,70,1,2,NaN,NaN,o,0.6698002,77,55,45,2,0,3,1
1,1,19,60,1,2,NaN,NaN,h,1.0869607,78,55,45,2,0,9,1
1,1,19,50,1,1,NaN,NaN,o,0.8365459,79,48,52,2,1,3,2
1,1,19,70,1,1,NaN,NaN,p,0.9871915,80,49,51,2,1,4,3
1,1,19,60,1,2,NaN,NaN,p,0.5870248,81,55,45,2,0,4,1
1,1,19,50,1,2,1,0.6650709,o,0.5172823,82,45,55,2,1,3,1
1,1,19,60,1,1,NaN,NaN,p,0.652948,83,48,52,2,1,4,2
1,1,19,50,1,2,1,0.8790852,p,0.4174278,84,48,52,2,1,4,2
1,1,19,60,1,1,1,0.7728497,p,0.610618,85,52,48,2,0,4,2
1,1,19,60,1,2,1,0.4690338,p,0.4017372,86,45,55,2,1,4,1
1,1,19,50,1,1,1,0.3695334,o,0.6181913,87,51,49,2,0,3,3
1,1,19,50,1,2,NaN,NaN,o,0.420559,88,55,45,2,0,3,1
1,1,19,70,1,1,1,0.3588709,o,0.4689844,89,52,48,2,0,3,2
1,1,19,70,1,1,1,0.607916,p,0.4673423,90,51,49,2,0,4,3
1,1,19,70,1,2,NaN,NaN,o,0.3707823,91,51,49,2,0,3,3
1,1,19,60,1,1,1,0.5579113,h,1.4340204,92,51,49,2,0,9,3
1,1,19,70,1,2,1,0.8186356,o,0.333798,93,48,52,2,1,3,2
1,1,19,70,1,2,1,0.6362791,o,0.3143419,94,45,55,2,1,3,1
1,1,19,70,1,2,NaN,NaN,p,0.0862661,95,55,45,2,0,4,1
1,1,19,60,1,1,1,0.5454405,o,0.5015712,96,52,48,2,0,3,2
1,1,19,50,1,2,NaN,NaN,i,1.4872846,97,52,48,2,0,2,2
1,1,19,50,1,2,NaN,NaN,p,0.4717708,98,51,49,2,0,4,3
1,1,19,60,1,2,1,0.5604661,p,0.4856957,99,48,52,2,1,4,2
1,1,19,60,1,2,1,0.5752004,p,0.4348583,100,45,55,2,1,4,1
1,1,19,70,1,2,1,0.5743019,p,0.3647944,101,45,55,2,1,4,1
1,1,19,60,1,2,NaN,NaN,p,0.3541099,102,55,45,2,0,4,1
1,1,19,70,1,2,NaN,NaN,p,0.4046085,103,52,48,2,0,4,2
1,1,19,50,1,1,NaN,NaN,o,0.3043077,104,45,55,2,1,3,1
1,1,19,50,1,1,1,0.8908845,o,0.8521793,105,51,49,2,0,3,3
1,1,19,50,1,1,NaN,NaN,o,0.6884357,106,48,52,2,1,3,2
1,1,19,60,1,2,1,0.9572486,o,0.4188152,107,49,51,2,1,3,3
1,1,19,50,1,2,1,0.6252614,o,0.301481,108,45,55,2,1,3,1
1,1,19,70,1,2,1,0.6075016,o,0.2315536,109,49,51,2,1,3,3
1,1,19,50,1,1,NaN,NaN,o,0.9206994,110,49,51,2,1,3,3
1,1,19,50,1,2,1,0.6604815,o,0.3349869,111,48,52,2,1,3,2
1,1,19,50,1,2,NaN,NaN,i,0.7051046,112,55,45,2,0,2,1
1,1,19,60,1,1,NaN,NaN,i,0.7386466,113,48,52,2,1,2,2
1,1,19,60,1,2,1,0.4420094,h,1.2191995,114,49,51,2,1,9,3
1,1,19,50,1,1,1,0.6900509,h,0.9691144,115,55,45,2,0,9,1
1,1,19,60,1,2,NaN,NaN,i,0.7188997,116,52,48,2,0,2,2
1,1,19,70,1,2,NaN,NaN,o,0.6859245,117,52,48,2,0,3,2
1,1,19,70,1,1,NaN,NaN,i,0.7373371,118,49,51,2,1,2,3
1,1,19,60,1,1,1,0.7251838,h,1.1479699,119,55,45,2,0,9,1
1,1,19,70,1,1,1,0.5268372,o,0.4505616,120,51,49,2,0,3,3
1,1,19,60,1,2,NaN,NaN,p,0.35493,121,52,48,2,0,4,2
1,1,19,60,1,2,NaN,NaN,o,0.3387187,122,52,48,2,0,3,2
1,1,19,60,1,1,NaN,NaN,p,0.3044218,123,49,51,2,1,4,3
1,1,19,50,1,2,NaN,NaN,o,0.3212703,124,51,49,2,0,3,3
1,1,19,70,1,2,1,0.5737384,o,0.3183322,125,49,51,2,1,3,3
1,1,19,70,1,2,1,0.6084742,o,0.3166375,126,45,55,2,1,3,1
1,1,19,70,1,2,1,0.7240878,p,0.4358044,127,49,51,2,1,4,3
1,1,19,70,1,2,NaN,NaN,p,0.6034259,128,51,49,2,0,4,3
1,1,19,70,1,2,NaN,NaN,p,0.3549156,129,52,48,2,0,4,2
1,1,19,50,1,2,NaN,NaN,p,0.3552059,130,55,45,2,0,4,1
1,1,19,50,1,1,NaN,NaN,p,0.3370452,131,49,51,2,1,4,3
1,1,19,50,1,2,1,0.6245993,o,0.4514125,132,45,55,2,1,3,1
1,1,19,50,1,2,1,0.6526133,p,0.434852,133,45,55,2,1,4,1
1,1,19,60,1,2,1,0.8778754,h,1.2844278,134,48,52,2,1,9,2
1,1,19,70,1,2,1,0.8053384,p,0.3354827,135,45,55,2,1,4,1
1,1,19,50,1,1,1,0.6584808,p,0.2841263,136,51,49,2,0,4,3
1,1,19,50,1,2,1,0.4417936,p,0.3186878,137,48,52,2,1,4,2
1,1,19,50,1,2,NaN,NaN,p,0.3880022,138,55,45,2,0,4,1
1,1,19,60,1,2,NaN,NaN,p,0.8711742,139,55,45,2,0,4,1
1,1,19,50,1,1,NaN,NaN,o,0.7206675,140,48,52,2,1,3,2
1,1,19,60,1,2,1,0.8288294,p,0.3680144,141,45,55,2,1,4,1
1,1,19,50,1,2,NaN,NaN,o,1.5867111,142,52,48,2,0,3,2
1,1,19,60,1,1,1,0.953611,o,0.8685442,143,51,49,2,0,3,3
1,1,19,70,1,2,NaN,NaN,p,0.5866488,144,55,45,2,0,4,1
1,1,19,70,1,1,NaN,NaN,i,0.43666,145,48,52,2,1,2,2
1,1,19,70,1,2,NaN,NaN,o,0.6864217,146,52,48,2,0,3,2
1,1,19,60,1,2,1,0.5531086,o,0.718747,147,48,52,2,1,3,2
1,1,19,60,1,2,NaN,NaN,o,0.4697755,148,55,45,2,0,3,1
1,1,19,60,1,1,NaN,NaN,o,0.5869122,149,49,51,2,1,3,3
1,1,19,70,1,2,NaN,NaN,h,1.5525392,150,52,48,2,0,9,2
1,1,19,60,1,2,1,0.527769,p,0.3007924,151,49,51,2,1,4,3
1,1,19,60,1,2,1,0.5267383,p,0.2359786,152,45,55,2,1,4,1
1,1,19,50,1,2,1,0.4421442,p,0.3020408,153,45,55,2,1,4,1
1,1,19,60,1,2,NaN,NaN,o,0.5388522,154,51,49,2,0,3,3
1,1,19,60,1,2,1,0.5592843,p,0.3024459,155,49,51,2,1,4,3
1,1,19,60,1,2,1,0.4096317,p,0.2683416,156,48,52,2,1,4,2
1,1,19,70,1,1,1,0.4921474,o,0.2004432,157,51,49,2,0,3,3
1,1,19,70,1,2,NaN,NaN,p,0.5876779,158,52,48,2,0,4,2
1,1,19,70,1,2,NaN,NaN,u,0.6542676,159,51,49,2,0,1,3
1,1,19,70,1,2,1,0.5557343,o,0.4846153,160,48,52,2,1,3,2
1,1,19,50,1,2,NaN,NaN,o,0.6219124,161,55,45,2,0,3,1
1,1,19,50,1,1,1,0.5122278,h,0.9856413,162,55,45,2,0,9,1
1,1,19,70,1,1,NaN,NaN,h,1.3381695,163,45,55,2,1,9,1
1,1,19,60,1,2,1,0.4696296,p,0.8148379,164,48,52,2,1,4,2
1,1,19,50,1,1,NaN,NaN,h,1.737508,165,48,52,2,1,9,2
1,1,19,50,1,2,1,0.3730764,o,0.4348012,166,45,55,2,1,3,1
1,1,19,60,1,2,NaN,NaN,o,0.5882494,167,55,45,2,0,3,1
1,1,19,50,1,2,NaN,NaN,o,0.6717726,168,52,48,2,0,3,2
1,1,19,70,1,2,1,0.472345,o,0.38498,169,49,51,2,1,3,3
1,1,19,60,1,2,NaN,NaN,o,0.6715708,170,52,48,2,0,3,2
1,1,19,50,1,2,NaN,NaN,o,0.5213796,171,51,49,2,0,3,3
1,1,19,50,1,1,1,0.7756826,o,0.2680205,172,51,49,2,0,3,3
1,1,19,60,1,2,NaN,NaN,o,0.3038743,173,52,48,2,0,3,2
1,1,19,50,1,2,1,0.7219896,o,0.4984181,174,48,52,2,1,3,2
1,1,19,50,1,2,1,0.6312253,p,0.4004915,175,49,51,2,1,4,3
1,1,19,70,1,2,NaN,NaN,i,0.4881413,176,55,45,2,0,2,1
1,1,19,60,1,2,NaN,NaN,o,0.9876103,177,55,45,2,0,3,1
1,1,19,70,1,1,NaN,NaN,o,0.8712151,178,49,51,2,1,3,3
1,1,19,70,1,2,1,0.5024965,p,0.4858995,179,45,55,2,1,4,1
1,1,19,50,1,2,1,0.2842771,p,0.5664384,180,48,52,2,1,4,2
1,1,19,50,1,2,1,0.3034752,p,0.3177513,181,49,51,2,1,4,3
1,1,19,70,1,2,NaN,NaN,o,0.2703205,182,52,48,2,0,3,2
1,1,19,50,1,2,1,0.4856311,p,0.30213,183,45,55,2,1,4,1
1,1,19,70,1,2,1,0.3267275,p,0.5354626,184,48,52,2,1,4,2
1,1,19,60,1,1,1,0.4233227,i,0.5343813,185,51,49,2,0,2,3
1,1,19,70,1,1,1,0.5041453,o,0.4002685,186,51,49,2,0,3,3
1,1,19,50,1,2,NaN,NaN,o,0.2539133,187,51,49,2,0,3,3
1,1,19,60,1,2,NaN,NaN,p,0.3864357,188,55,45,2,0,4,1
1,1,19,60,1,1,1,0.7740444,o,0.5513195,189,52,48,2,0,3,2
1,1,19,60,1,2,1,0.6248624,o,0.3681725,190,45,55,2,1,3,1
1,1,19,70,1,1,1,0.623244,h,1.0519113,191,55,45,2,0,9,1
1,1,19,70,1,2,1,0.5560725,p,0.3340284,192,45,55,2,1,4,1
1,1,19,70,1,2,1,0.4736104,p,0.2022071,193,45,55,2,1,4,1
1,1,19,60,1,2,1,0.4113532,p,0.185267,194,48,52,2,1,4,2
1,1,19,50,1,2,1,0.4413196,o,0.3521023,195,48,52,2,1,3,2
1,1,19,70,1,2,1,0.5785955,o,0.1500252,196,49,51,2,1,3,3
1,1,19,60,1,1,NaN,NaN,o,0.0358262,197,49,51,2,1,3,3
1,1,19,70,1,2,NaN,NaN,p,0.3538301,198,51,49,2,0,4,3
1,1,19,70,1,2,1,0.4773415,o,0.2685035,199,49,51,2,1,3,3
1,1,19,60,1,1,1,0.7694193,h,1.0011207,200,52,48,2,0,9,2
1,1,19,60,1,1,NaN,NaN,p,0.4881549,201,48,52,2,1,4,2
1,1,19,50,1,2,NaN,NaN,p,0.6217426,202,55,45,2,0,4,1
1,1,19,50,1,2,NaN,NaN,p,0.2548641,203,52,48,2,0,4,2
1,1,19,60,1,2,NaN,NaN,o,0.4209985,204,55,45,2,0,3,1
1,1,19,60,1,1,NaN,NaN,o,0.4693209,205,49,51,2,1,3,3
1,1,19,50,1,1,NaN,NaN,o,0.4039877,206,45,55,2,1,3,1
1,1,19,50,1,1,1,0.2368291,o,0.4233257,207,51,49,2,0,3,3
1,1,19,70,1,1,1,0.7076398,p,0.3355435,208,52,48,2,0,4,2
1,1,19,50,1,2,NaN,NaN,o,0.4882959,209,55,45,2,0,3,1
1,1,19,50,1,2,1,0.6705604,p,0.4185863,210,45,55,2,1,4,1
1,1,19,60,1,1,1,0.6423462,o,0.4632622,211,55,45,2,0,3,1
1,1,19,70,1,2,NaN,NaN,p,0.3369737,212,51,49,2,0,4,3
1,1,19,50,1,2,1,0.9390426,p,0.4349166,213,49,51,2,1,4,3
1,1,19,50,1,2,1,0.4753987,p,0.2678661,214,48,52,2,1,4,2
1,1,19,60,1,1,1,0.3115761,p,0.2687869,215,51,49,2,0,4,3
1,1,19,70,1,1,1,0.5106306,o,0.3168296,216,52,48,2,0,3,2
1,1,19,50,1,2,NaN,NaN,o,0.28787,217,52,48,2,0,3,2
1,1,19,70,1,2,1,0.6951945,o,0.9185888,218,49,51,2,1,3,3
1,1,19,50,1,1,1,0.6214109,p,0.4857133,219,51,49,2,0,4,3
1,1,19,50,1,1,1,0.5085157,p,0.3011914,220,51,49,2,0,4,3
1,1,19,50,1,2,NaN,NaN,o,0.4040854,221,55,45,2,0,3,1
1,1,19,50,1,2,1,0.9014519,p,0.267522,222,45,55,2,1,4,1
1,1,19,50,1,2,NaN,NaN,o,0.1870446,223,55,45,2,0,3,1
1,1,19,60,1,2,1,0.5402769,h,1.3527196,224,49,51,2,1,9,3
1,1,19,60,1,1,1,0.5612427,h,1.2682284,225,52,48,2,0,9,2
1,1,19,70,1,2,1,0.4903072,p,0.4517898,226,45,55,2,1,4,1
1,1,19,60,1,1,NaN,NaN,p,0.4876614,227,48,52,2,1,4,2
1,1,19,50,1,2,1,0.5543803,p,0.3349919,228,48,52,2,1,4,2
1,1,19,70,1,2,NaN,NaN,o,0.3544305,229,51,49,2,0,3,3
1,1,19,60,1,2,1,0.6723548,p,0.234204,230,45,55,2,1,4,1
1,1,19,70,1,2,1,0.3892597,p,0.13392,231,48,52,2,1,4,2
1,1,19,70,1,2,1,0.5040691,p,0.0847409,232,49,51,2,1,4,3
1,1,19,70,1,2,1,0.4422455,p,0.1351183,233,45,55,2,1,4,1
1,1,19,60,1,2,NaN,NaN,o,0.371296,234,55,45,2,0,3,1
1,1,19,70,1,2,NaN,NaN,o,0.4374128,235,55,45,2,0,3,1
1,1,19,60,1,2,1,0.5707799,p,0.1847084,236,48,52,2,1,4,2
1,1,19,60,1,1,NaN,NaN,o,0.4022123,237,49,51,2,1,3,3
1,1,19,60,1,2,NaN,NaN,o,0.5355479,238,52,48,2,0,3,2
1,1,19,70,1,2,NaN,NaN,p,0.4542419,239,52,48,2,0,4,2
1,1,19,60,1,2,1,0.290413,p,0.3355618,240,48,52,2,1,4,2
1,1,19,50,1,1,1,0.3375624,p,0.2857275,241,52,48,2,0,4,2
1,1,19,70,1,1,NaN,NaN,o,1.052762,242,49,51,2,1,3,3
1,1,19,50,1,2,1,0.3872364,h,1.1508052,243,48,52,2,1,9,2
1,1,19,70,1,1,NaN,NaN,p,0.4040502,244,48,52,2,1,4,2
1,1,19,70,1,1,1,0.5104143,i,0.6680995,245,52,48,2,0,2,2
1,1,19,60,1,2,NaN,NaN,u,1.019997,246,51,49,2,0,1,3
1,1,19,70,1,2,NaN,NaN,p,0.4875036,247,55,45,2,0,4,1
1,1,19,50,1,2,1,0.7064013,p,0.3854833,248,45,55,2,1,4,1
1,1,19,50,1,1,NaN,NaN,i,0.4550574,249,49,51,2,1,2,3
1,1,19,50,1,2,NaN,NaN,o,0.6215861,250,55,45,2,0,3,1
1,1,19,60,1,1,NaN,NaN,o,0.3859639,251,49,51,2,1,3,3
1,1,19,50,1,2,NaN,NaN,i,0.6355677,252,51,49,2,0,2,3
1,1,19,60,1,2,NaN,NaN,p,0.6032035,253,55,45,2,0,4,1
1,1,19,70,1,2,1,0.4077675,o,0.5679548,254,49,51,2,1,3,3
1,1,19,60,1,2,1,0.3867148,o,0.3182777,255,48,52,2,1,3,2
1,1,19,60,1,2,1,0.4741292,o,0.1689045,256,45,55,2,1,3,1
1,1,19,60,1,2,NaN,NaN,i,0.4884078,257,52,48,2,0,2,2
1,1,19,70,1,2,NaN,NaN,p,0.5216829,258,51,49,2,0,4,3
1,1,19,50,1,2,NaN,NaN,p,0.8533785,259,51,49,2,0,4,3
1,1,19,70,1,2,1,0.6189461,o,0.5490686,260,45,55,2,1,3,1
1,1,19,60,1,2,NaN,NaN,o,0.5707361,261,55,45,2,0,3,1
1,1,19,60,1,1,NaN,NaN,o,0.786994,262,49,51,2,1,3,3
1,1,19,70,1,1,NaN,NaN,o,0.3536428,263,45,55,2,1,3,1
1,1,19,50,1,2,NaN,NaN,o,0.4550057,264,55,45,2,0,3,1
1,1,19,70,1,2,NaN,NaN,i,0.5544102,265,51,49,2,0,2,3
1,1,19,60,1,2,NaN,NaN,o,0.7710909,266,52,48,2,0,3,2
1,1,19,50,1,1,NaN,NaN,o,0.7050825,267,45,55,2,1,3,1
1,1,19,50,1,1,NaN,NaN,p,0.7538687,268,48,52,2,1,4,2
1,1,19,70,1,1,1,0.5064426,o,0.4315327,269,52,48,2,0,3,2
1,1,19,70,1,2,1,0.4114279,p,0.3508897,270,45,55,2,1,4,1
1,1,19,60,1,2,NaN,NaN,p,0.3715555,271,55,45,2,0,4,1
1,1,19,60,1,2,NaN,NaN,p,0.4216005,272,52,48,2,0,4,2
1,1,19,60,1,2,1,0.5407323,p,0.3353091,273,45,55,2,1,4,1
1,1,19,50,1,2,1,0.4304706,p,0.3189152,274,45,55,2,1,4,1
1,1,19,60,1,2,NaN,NaN,o,0.3882567,275,51,49,2,0,3,3
1,1,19,60,1,1,NaN,NaN,o,0.5032516,276,49,51,2,1,3,3
1,1,19,70,1,2,NaN,NaN,o,0.5040141,277,51,49,2,0,3,3
1,1,19,50,1,2,NaN,NaN,o,0.470531,278,52,48,2,0,3,2
1,1,19,50,1,1,1,0.4430528,o,0.4019037,279,51,49,2,0,3,3
1,1,19,60,1,2,NaN,NaN,p,0.269586,280,55,45,2,0,4,1
1,1,19,50,1,1,NaN,NaN,p,0.5871024,281,48,52,2,1,4,2
1,1,19,70,1,2,NaN,NaN,p,0.3718072,282,55,45,2,0,4,1
1,1,19,70,1,2,NaN,NaN,p,0.5873927,283,51,49,2,0,4,3
1,1,19,70,1,1,NaN,NaN,o,0.3197858,284,49,51,2,1,3,3
1,1,19,60,1,2,1,0.324801,o,0.6676623,285,49,51,2,1,3,3
1,1,19,50,1,2,1,0.9093284,h,1.4011695,286,48,52,2,1,9,2
1,1,19,70,1,1,NaN,NaN,o,0.4384518,287,48,52,2,1,3,2
1,1,19,70,1,2,1,0.6012984,p,0.450058,288,49,51,2,1,4,3
1,1,19,60,1,2,NaN,NaN,p,0.3883168,289,52,48,2,0,4,2
1,1,19,50,1,2,NaN,NaN,p,0.4052817,290,55,45,2,0,4,1
1,1,19,50,1,2,NaN,NaN,i,0.7705437,291,55,45,2,0,2,1
1,1,19,60,1,1,NaN,NaN,o,0.7042879,292,48,52,2,1,3,2
1,1,19,50,1,2,NaN,NaN,o,0.5207824,293,51,49,2,0,3,3
1,1,19,70,1,1,1,0.5454718,o,0.4509136,294,52,48,2,0,3,2
1,1,19,50,1,1,NaN,NaN,o,0.5045704,295,49,51,2,1,3,3
1,1,19,60,1,2,1,0.3412531,p,0.6510112,296,48,52,2,1,4,2
1,1,19,70,1,2,1,0.6911212,p,0.3521646,297,45,55,2,1,4,1
1,1,19,50,1,2,1,0.4482407,o,0.4676918,298,45,55,2,1,3,1
1,1,19,70,1,1,1,0.2555695,o,0.3020928,299,52,48,2,0,3,2
1,1,19,70,1,1,1,0.2239881,p,0.4346126,300,52,48,2,0,4,2
1,1,19,70,1,2,1,0.2187094,p,0.2179697,301,49,51,2,1,4,3
1,1,19,70,1,1,1,0.292051,p,0.2245582,302,51,49,2,0,4,3
1,1,19,50,1,2,1,0.8086248,p,0.1684548,303,48,52,2,1,4,2
1,1,19,70,1,2,1,0.5254364,o,0.3179328,304,45,55,2,1,3,1
1,1,19,60,1,1,NaN,NaN,o,0.4877855,305,48,52,2,1,3,2
1,1,19,50,1,1,NaN,NaN,p,0.6540025,306,49,51,2,1,4,3
1,1,19,60,1,2,NaN,NaN,p,0.4036959,307,55,45,2,0,4,1
1,1,19,60,1,2,NaN,NaN,i,0.1041019,308,52,48,2,0,2,2
1,1,19,70,1,1,NaN,NaN,o,0.4374402,309,49,51,2,1,3,3
1,1,19,50,1,2,NaN,NaN,o,0.4024164,310,51,49,2,0,3,3
1,1,19,70,1,1,NaN,NaN,o,0.4546579,311,48,52,2,1,3,2
1,1,19,70,1,2,NaN,NaN,o,0.3042442,312,51,49,2,0,3,3
1,1,19,50,1,1,1,0.3544914,o,0.318284,313,51,49,2,0,3,3
1,1,19,70,1,2,1,0.3880664,o,0.2188384,314,45,55,2,1,3,1
1,1,19,50,1,1,NaN,NaN,o,0.3380626,315,48,52,2,1,3,2
1,1,19,60,1,2,NaN,NaN,p,0.3876548,316,55,45,2,0,4,1
1,1,19,50,1,2,1,0.4461323,p,0.3326765,317,45,55,2,1,4,1
1,1,19,50,1,2,NaN,NaN,o,0.4207873,318,55,45,2,0,3,1
1,1,19,60,1,1,1,0.5131987,h,1.0350431,319,51,49,2,0,9,3
1,1,19,60,1,2,1,0.7078889,p,0.3016869,320,45,55,2,1,4,1
1,1,19,60,1,2,1,0.5070797,o,0.4020957,321,49,51,2,1,3,3
1,1,19,60,1,1,NaN,NaN,o,0.5710063,322,49,51,2,1,3,3
1,1,19,70,1,2,NaN,NaN,o,0.7049673,323,52,48,2,0,3,2
1,1,19,60,1,1,NaN,NaN,o,1.0539874,324,48,52,2,1,3,2
1,1,19,70,1,2,NaN,NaN,p,0.6187072,325,55,45,2,0,4,1
1,1,19,50,1,2,NaN,NaN,p,0.5836314,326,55,45,2,0,4,1
1,1,19,50,1,2,1,0.7268058,o,0.4021315,327,45,55,2,1,3,1
1,1,19,60,1,2,NaN,NaN,o,0.4877683,328,52,48,2,0,3,2
1,1,19,50,1,2,NaN,NaN,o,0.8044577,329,52,48,2,0,3,2
1,1,19,70,1,2,1,0.223101,p,0.3517099,330,49,51,2,1,4,3
1,1,19,50,1,1,1,0.3029665,p,0.3021243,331,51,49,2,0,4,3
1,1,19,60,1,2,1,0.4784511,o,0.3850945,332,45,55,2,1,3,1
1,1,19,50,1,2,1,0.5414436,o,0.2012893,333,45,55,2,1,3,1
1,1,19,50,1,2,1,0.2720261,o,0.1315343,334,48,52,2,1,3,2
1,1,19,50,1,2,NaN,NaN,p,0.3045279,335,55,45,2,0,4,1
1,1,19,70,1,2,NaN,NaN,o,0.381136,336,52,48,2,0,3,2
1,1,19,60,1,2,1,0.558341,o,0.2853375,337,48,52,2,1,3,2
1,1,19,70,1,1,NaN,NaN,h,1.4549995,338,45,55,2,1,9,1
1,1,19,60,1,2,NaN,NaN,o,0.5716202,339,55,45,2,0,3,1
1,1,19,70,1,2,NaN,NaN,p,0.4210102,340,55,45,2,0,4,1
1,1,19,70,1,2,1,0.5760332,p,0.3844817,341,48,52,2,1,4,2
1,1,19,70,1,2,1,0.5406991,o,0.332236,342,45,55,2,1,3,1
1,1,19,70,1,2,NaN,NaN,o,0.5716735,343,52,48,2,0,3,2
1,1,19,50,1,2,1,0.4941929,o,0.2682746,344,45,55,2,1,3,1
1,1,19,50,1,1,1,0.5292326,i,0.8021423,345,55,45,2,0,2,1
1,1,19,70,1,1,1,0.6923295,h,1.5858269,346,51,49,2,0,9,3
1,1,19,50,1,2,NaN,NaN,o,0.3548506,347,51,49,2,0,3,3
1,1,19,70,1,2,NaN,NaN,o,0.4541702,348,51,49,2,0,3,3
1,1,19,50,1,1,NaN,NaN,i,0.4368674,349,49,51,2,1,2,3
1,1,19,60,1,1,NaN,NaN,o,0.835538,350,49,51,2,1,3,3
1,1,19,60,1,1,NaN,NaN,o,0.5865037,351,48,52,2,1,3,2
1,1,19,50,1,1,NaN,NaN,i,0.5550186,352,48,52,2,1,2,2
1,1,19,60,1,2,NaN,NaN,p,0.6871616,353,55,45,2,0,4,1
1,1,19,70,1,1,NaN,NaN,o,0.5211706,354,49,51,2,1,3,3
1,1,19,60,1,1,1,0.5619008,u,0.9845346,355,51,49,2,0,1,3
1,1,19,60,1,2,NaN,NaN,o,0.7044394,356,52,48,2,0,3,2
1,1,19,60,1,2,1,0.3244026,p,0.4846733,357,49,51,2,1,4,3
1,1,19,50,1,2,NaN,NaN,o,0.5019118,358,52,48,2,0,3,2
1,1,19,60,1,2,NaN,NaN,o,0.5196816,359,52,48,2,0,3,2
1,1,19,60,1,1,1,0.5391988,p,0.4687676,360,52,48,2,0,4,2
1,1,19,60,1,2,1,0.3596513,o,0.2994364,361,49,51,2,1,3,3
1,1,19,50,1,2,1,0.6080075,o,0.3520276,362,49,51,2,1,3,3
1,1,19,50,1,2,NaN,NaN,p,0.3539738,363,55,45,2,0,4,1
1,1,19,60,1,2,1,0.8850579,o,0.3012621,364,49,51,2,1,3,3
1,1,19,50,1,1,1,0.5079757,h,1.1513533,365,52,48,2,0,9,2
1,1,19,50,1,2,1,0.5579978,o,0.2342479,366,45,55,2,1,3,1
1,1,19,60,1,2,NaN,NaN,o,0.3366494,367,55,45,2,0,3,1
1,1,19,50,1,2,NaN,NaN,i,0.3382169,368,51,49,2,0,2,3
1,1,19,70,1,1,NaN,NaN,o,0.3710687,369,49,51,2,1,3,3
1,1,19,60,1,1,1,0.9053496,h,0.8354301,370,55,45,2,0,9,1
1,1,19,70,1,2,NaN,NaN,i,0.5537366,371,52,48,2,0,2,2
1,1,19,60,1,2,1,0.6875155,p,0.6178808,372,48,52,2,1,4,2
1,1,19,50,1,2,1,0.3990182,p,0.5516214,373,45,55,2,1,4,1
1,1,19,60,1,1,1,0.4570847,o,0.5316524,374,52,48,2,0,3,2
1,1,19,70,1,2,1,0.3230252,o,0.1849449,375,45,55,2,1,3,1
1,1,19,70,1,2,1,0.3555445,p,0.1340803,376,45,55,2,1,4,1
1,1,19,50,1,2,1,0.32295,p,0.1014365,377,48,52,2,1,4,2
1,1,19,60,1,1,1,0.3217129,p,0.1518243,378,51,49,2,0,4,3
1,1,19,70,1,2,NaN,NaN,o,0.3869127,379,55,45,2,0,3,1
1,1,19,50,1,2,1,0.7089328,p,0.3346125,380,48,52,2,1,4,2
1,1,19,50,1,2,NaN,NaN,o,0.6523905,381,51,49,2,0,3,3
1,1,19,70,1,2,NaN,NaN,o,0.3538577,382,51,49,2,0,3,3
1,1,19,50,1,2,NaN,NaN,p,0.4211131,383,55,45,2,0,4,1
1,1,19,60,1,2,1,0.7553131,p,0.2687928,384,48,52,2,1,4,2
1,1,19,60,1,2,1,0.3036208,p,0.2852973,385,45,55,2,1,4,1
1,1,19,70,1,1,1,0.7379145,o,0.2520396,386,52,48,2,0,3,2
1,1,19,70,1,2,1,0.4422866,p,0.2505546,387,48,52,2,1,4,2
1,1,19,70,1,2,NaN,NaN,o,0.4032177,388,51,49,2,0,3,3
1,1,19,70,1,2,1,0.5557481,o,0.2347076,389,49,51,2,1,3,3
2,1,19,50,0,2,NaN,NaN,p,0.6135036,0,49,51,1,0,4,3
2,1,19,70,0,1,NaN,NaN,o,0.796793,1,52,48,1,1,3,2
2,1,19,70,0,2,1,0.7019939,p,0.9773629,2,51,49,1,1,4,3
2,1,19,50,0,2,NaN,NaN,p,0.3809472,3,45,55,1,0,4,1
2,1,19,70,0,2,1,0.7862925,p,0.4453395,4,52,48,1,1,4,2
2,1,19,50,0,2,NaN,NaN,o,0.8811766,5,45,55,1,0,3,1
2,1,19,70,0,2,NaN,NaN,o,0.8643002,6,49,51,1,0,3,3
2,1,19,70,0,1,NaN,NaN,o,0.3472553,7,51,49,1,1,3,3
2,1,19,60,0,2,NaN,NaN,o,0.3968602,8,49,51,1,0,3,3
2,1,19,50,0,1,NaN,NaN,o,0.563185,9,51,49,1,1,3,3
2,1,19,70,0,2,1,0.5643946,o,0.6110642,10,55,45,1,1,3,1
2,1,19,70,0,2,NaN,NaN,p,0.6815683,11,45,55,1,0,4,1
2,1,19,70,0,1,1,0.9203885,o,0.6289475,12,49,51,1,0,3,3
2,1,19,60,0,2,NaN,NaN,o,0.3814196,13,45,55,1,0,3,1
2,1,19,60,0,2,1,0.5912335,o,0.4441882,14,55,45,1,1,3,1
2,1,19,60,0,2,1,0.5751093,o,0.3614954,15,52,48,1,1,3,2
2,1,19,50,0,1,NaN,NaN,o,0.3636866,16,55,45,1,1,3,1
2,1,19,70,0,2,NaN,NaN,o,0.3476774,17,48,52,1,0,3,2
2,1,19,60,0,1,NaN,NaN,o,0.3811495,18,55,45,1,1,3,1
2,1,19,60,0,1,1,0.4558629,o,0.3959517,19,48,52,1,0,3,2
2,1,19,60,0,2,NaN,NaN,o,0.4484582,20,49,51,1,0,3,3
2,1,19,60,0,2,NaN,NaN,o,0.3815394,21,48,52,1,0,3,2
2,1,19,60,0,1,NaN,NaN,o,0.4132398,22,51,49,1,1,3,3
2,1,19,50,0,1,NaN,NaN,o,0.3140373,23,51,49,1,1,3,3
2,1,19,50,0,2,1,0.6190249,o,0.5776662,24,52,48,1,1,3,2
2,1,19,50,0,2,NaN,NaN,o,0.3149005,25,48,52,1,0,3,2
2,1,19,50,0,2,NaN,NaN,o,0.3633064,26,48,52,1,0,3,2
2,1,19,60,0,2,1,0.8703603,o,0.5623185,27,52,48,1,1,3,2
2,1,19,70,0,2,NaN,NaN,o,0.4015511,28,45,55,1,0,3,1
2,1,19,50,0,2,1,0.9361392,o,0.581247,29,55,45,1,1,3,1
2,1,19,60,0,1,NaN,NaN,o,1.1314719,30,52,48,1,1,3,2
2,1,19,70,0,2,1,0.5874166,o,0.3606524,31,52,48,1,1,3,2
2,1,19,50,0,2,1,0.5074441,o,0.296366,32,55,45,1,1,3,1
2,1,19,60,0,2,NaN,NaN,o,0.3175463,33,49,51,1,0,3,3
2,1,19,70,0,1,NaN,NaN,o,0.397949,34,52,48,1,1,3,2
2,1,19,70,0,2,NaN,NaN,o,0.384729,35,49,51,1,0,3,3
2,1,19,70,0,2,NaN,NaN,o,0.3310033,36,49,51,1,0,3,3
2,1,19,60,0,2,NaN,NaN,o,0.3330992,37,45,55,1,0,3,1
2,1,19,60,0,2,1,0.6222079,o,0.4467875,38,51,49,1,1,3,3
2,1,19,50,0,2,NaN,NaN,o,0.3323189,39,45,55,1,0,3,1
2,1,19,50,0,1,1,0.7875749,o,0.3425487,40,49,51,1,0,3,3
2,1,19,50,0,1,NaN,NaN,o,0.5313564,41,55,45,1,1,3,1
2,1,19,70,0,2,1,0.7192443,o,0.5946887,42,55,45,1,1,3,1
2,1,19,60,0,2,NaN,NaN,o,0.4152881,43,49,51,1,0,3,3
2,1,19,60,0,2,1,0.8044918,o,0.4626778,44,52,48,1,1,3,2
2,1,19,70,0,2,NaN,NaN,i,1.5683509,45,48,52,1,0,2,2
2,1,19,50,0,1,1,0.7543771,h,1.6306942,46,45,55,1,0,9,1
2,1,19,70,0,2,NaN,NaN,o,1.1846884,47,45,55,1,0,3,1
2,1,19,60,0,2,1,0.7212187,o,0.4803013,48,55,45,1,1,3,1
2,1,19,60,0,2,NaN,NaN,o,0.5326467,49,48,52,1,0,3,2
2,1,19,50,0,2,1,0.7526401,o,0.4960536,50,51,49,1,1,3,3
2,1,19,70,0,2,1,0.6698656,o,0.3631303,51,51,49,1,1,3,3
2,1,19,50,0,2,NaN,NaN,o,0.2997136,52,48,52,1,0,3,2
2,1,19,50,0,2,NaN,NaN,o,0.3843484,53,48,52,1,0,3,2
2,1,19,60,0,2,NaN,NaN,o,0.4319444,54,48,52,1,0,3,2
2,1,19,50,0,2,1,0.4528038,o,0.4621862,55,51,49,1,1,3,3
2,1,19,70,0,2,NaN,NaN,o,0.3814752,56,45,55,1,0,3,1
2,1,19,70,0,1,NaN,NaN,o,0.396951,57,51,49,1,1,3,3
2,1,19,60,0,2,1,0.851864,o,0.4784964,58,55,45,1,1,3,1
2,1,19,50,0,2,1,0.5837271,o,0.4983924,59,52,48,1,1,3,2
2,1,19,60,0,2,NaN,NaN,o,0.9977822,60,48,52,1,0,3,2
2,1,19,50,0,2,NaN,NaN,o,0.3485993,61,48,52,1,0,3,2
2,1,19,70,0,2,NaN,NaN,o,0.3148164,62,48,52,1,0,3,2
2,1,19,60,0,1,NaN,NaN,o,0.1507984,63,52,48,1,1,3,2
2,1,19,50,0,2,NaN,NaN,o,0.3156101,64,45,55,1,0,3,1
2,1,19,50,0,1,NaN,NaN,o,0.5316913,65,51,49,1,1,3,3
2,1,19,60,0,1,NaN,NaN,o,0.3808139,66,55,45,1,1,3,1
2,1,19,70,0,2,1,0.2683412,o,0.494432,67,52,48,1,1,3,2
2,1,19,70,0,2,1,0.5043746,o,0.3470756,68,51,49,1,1,3,3
2,1,19,50,0,2,1,0.464475,o,0.3816477,69,52,48,1,1,3,2
2,1,19,60,0,2,1,0.7527833,o,0.3628991,70,52,48,1,1,3,2
2,1,19,60,0,2,NaN,NaN,o,0.332036,71,48,52,1,0,3,2
2,1,19,60,0,1,1,0.5542391,o,0.3470547,72,49,51,1,0,3,3
2,1,19,50,0,1,1,0.6711659,p,0.7962777,73,49,51,1,0,4,3
2,1,19,70,0,1,1,0.8527212,o,0.3294363,74,49,51,1,0,3,3
2,1,19,70,0,2,NaN,NaN,o,0.3629078,75,45,55,1,0,3,1
2,1,19,60,0,2,1,0.6069174,o,0.3964801,76,55,45,1,1,3,1
2,1,19,70,0,2,NaN,NaN,o,0.3187264,77,49,51,1,0,3,3
2,1,19,60,0,2,NaN,NaN,p,0.4178681,78,45,55,1,0,4,1
2,1,19,70,0,2,NaN,NaN,o,0.5500168,79,45,55,1,0,3,1
2,1,19,60,0,1,1,0.7353171,o,0.3796714,80,49,51,1,0,3,3
2,1,19,50,0,1,NaN,NaN,o,0.0790303,81,51,49,1,1,3,3
2,1,19,50,0,1,1,0.58009,o,0.3451274,82,48,52,1,0,3,2
2,1,19,60,0,1,NaN,NaN,o,0.7354322,83,51,49,1,1,3,3
2,1,19,70,0,2,1,0.5695509,o,0.4479566,84,52,48,1,1,3,2
2,1,19,50,0,2,1,0.3867085,o,0.3796299,85,55,45,1,1,3,1
2,1,19,70,0,2,1,0.4254715,o,0.3292679,86,55,45,1,1,3,1
2,1,19,50,0,2,1,0.3748085,o,0.3468064,87,55,45,1,1,3,1
2,1,19,50,0,2,NaN,NaN,o,0.6160402,88,45,55,1,0,3,1
2,1,19,70,0,2,1,0.5531257,o,0.2125867,89,51,49,1,1,3,3
2,1,19,50,0,2,NaN,NaN,o,0.3980778,90,48,52,1,0,3,2
2,1,19,60,0,1,NaN,NaN,o,0.4840059,91,51,49,1,1,3,3
2,1,19,50,0,2,1,0.5220229,o,0.3980428,92,55,45,1,1,3,1
2,1,19,50,0,2,NaN,NaN,p,0.3022411,93,45,55,1,0,4,1
2,1,19,70,0,2,1,0.8346359,o,0.3636354,94,51,49,1,1,3,3
2,1,19,70,0,2,NaN,NaN,p,0.3811978,95,49,51,1,0,4,3
2,1,19,60,0,2,NaN,NaN,o,0.2811742,96,49,51,1,0,3,3
2,1,19,70,0,2,NaN,NaN,o,0.3318066,97,45,55,1,0,3,1
2,1,19,60,0,1,1,0.8712275,o,0.380064,98,48,52,1,0,3,2
2,1,19,70,0,2,NaN,NaN,o,0.2848914,99,45,55,1,0,3,1
2,1,19,70,0,2,1,0.4218655,o,0.3803208,100,52,48,1,1,3,2
2,1,19,70,0,1,NaN,NaN,o,1.0485608,101,52,48,1,1,3,2
2,1,19,70,0,2,1,0.5553949,o,0.3287797,102,51,49,1,1,3,3
2,1,19,60,0,1,1,0.5225862,o,0.3789113,103,48,52,1,0,3,2
2,1,19,60,0,2,1,0.6210226,o,0.3627057,104,52,48,1,1,3,2
2,1,19,60,0,2,NaN,NaN,o,0.3678622,105,45,55,1,0,3,1
2,1,19,60,0,2,1,0.4791514,o,0.3794739,106,55,45,1,1,3,1
2,1,19,60,0,2,1,0.3814835,o,0.363235,107,52,48,1,1,3,2
2,1,19,60,0,2,1,0.4890485,o,0.4144554,108,55,45,1,1,3,1
2,1,19,50,0,2,NaN,NaN,i,1.7851295,109,48,52,1,0,2,2
2,1,19,50,0,2,1,0.5719533,o,0.3798905,110,51,49,1,1,3,3
2,1,19,50,0,2,1,0.6456304,o,0.8960436,111,52,48,1,1,3,2
2,1,19,50,0,2,1,0.4390472,o,0.3122154,112,51,49,1,1,3,3
2,1,19,60,0,1,1,0.4651786,o,0.3118295,113,49,51,1,0,3,3
2,1,19,70,0,2,NaN,NaN,o,0.815682,114,48,52,1,0,3,2
2,1,19,50,0,2,NaN,NaN,o,0.4007587,115,49,51,1,0,3,3
2,1,19,50,0,2,1,0.4770854,o,0.3966049,116,55,45,1,1,3,1
2,1,19,50,0,2,NaN,NaN,o,0.8840406,117,45,55,1,0,3,1
2,1,19,70,0,2,1,0.4846216,o,0.3621705,118,55,45,1,1,3,1
2,1,19,70,0,1,1,0.5429668,o,0.3290701,119,49,51,1,0,3,3
2,1,19,60,0,1,1,0.5212985,o,0.4628508,120,49,51,1,0,3,3
2,1,19,60,0,2,1,0.2968251,o,0.3059861,121,52,48,1,1,3,2
2,1,19,60,0,2,1,0.2877214,o,0.279913,122,55,45,1,1,3,1
2,1,19,50,0,2,1,0.4229188,o,0.2633025,123,52,48,1,1,3,2
2,1,19,50,0,2,1,0.2959007,o,0.2960842,124,55,45,1,1,3,1
2,1,19,70,0,2,1,0.3764224,o,0.2643536,125,52,48,1,1,3,2
2,1,19,60,0,2,1,0.4718174,o,0.2127003,126,51,49,1,1,3,3
2,1,19,50,0,2,1,0.3815651,o,0.2422114,127,55,45,1,1,3,1
2,1,19,60,0,2,1,0.2541244,o,0.2621952,128,52,48,1,1,3,2
2,1,19,50,0,2,NaN,NaN,o,0.3470906,129,49,51,1,0,3,3
2,1,19,70,0,2,NaN,NaN,o,0.3840653,130,45,55,1,0,3,1
2,1,19,50,0,2,1,0.5783481,o,0.263512,131,51,49,1,1,3,3
2,1,19,60,0,2,1,0.3971791,o,0.2091242,132,55,45,1,1,3,1
2,1,19,50,0,2,1,0.2875696,o,0.2958829,133,51,49,1,1,3,3
2,1,19,70,0,2,1,0.3081863,o,0.2625124,134,52,48,1,1,3,2
2,1,19,60,0,1,1,0.197578,o,0.3127489,135,45,55,1,0,3,1
2,1,19,60,0,2,NaN,NaN,o,0.3815023,136,49,51,1,0,3,3
2,1,19,70,0,2,NaN,NaN,o,0.3302759,137,49,51,1,0,3,3
2,1,19,70,0,1,1,0.4876008,o,0.3124899,138,49,51,1,0,3,3
2,1,19,50,0,2,NaN,NaN,o,0.5007798,139,45,55,1,0,3,1
2,1,19,60,0,2,NaN,NaN,o,0.0648551,140,48,52,1,0,3,2
2,1,19,70,0,2,1,0.3632295,o,0.3655834,141,51,49,1,1,3,3
2,1,19,50,0,2,NaN,NaN,o,0.3147104,142,45,55,1,0,3,1
2,1,19,70,0,2,1,0.6541614,o,0.3621203,143,51,49,1,1,3,3
2,1,19,60,0,2,NaN,NaN,o,0.3337598,144,48,52,1,0,3,2
2,1,19,50,0,2,NaN,NaN,o,0.3499125,145,48,52,1,0,3,2
2,1,19,70,0,2,NaN,NaN,o,0.4317273,146,48,52,1,0,3,2
2,1,19,70,0,2,NaN,NaN,o,0.3841352,147,45,55,1,0,3,1
2,1,19,50,0,2,NaN,NaN,o,0.3315555,148,48,52,1,0,3,2
2,1,19,70,0,2,1,0.5078779,o,0.4123671,149,55,45,1,1,3,1
2,1,19,60,0,2,1,0.7549609,o,0.3457262,150,55,45,1,1,3,1
2,1,19,60,0,2,1,0.3853608,o,0.2942217,151,52,48,1,1,3,2
2,1,19,60,0,2,1,0.4195063,o,0.2457828,152,52,48,1,1,3,2
2,1,19,50,0,1,1,0.7699069,o,0.2956138,153,48,52,1,0,3,2
2,1,19,50,0,1,1,0.2291107,o,0.279444,154,48,52,1,0,3,2
2,1,19,60,0,1,1,0.2442225,o,0.2737057,155,49,51,1,0,3,3
2,1,19,60,0,2,1,0.2227634,o,0.2975948,156,55,45,1,1,3,1
2,1,19,70,0,1,1,0.3725928,o,0.2127109,157,48,52,1,0,3,2
2,1,19,60,0,1,1,0.3227916,o,0.2795987,158,48,52,1,0,3,2
2,1,19,70,0,2,1,0.3213798,o,0.2464626,159,51,49,1,1,3,3
2,1,19,60,0,1,1,0.1544913,o,0.3126559,160,45,55,1,0,3,1
2,1,19,70,0,2,1,0.3356104,o,0.2453456,161,55,45,1,1,3,1
2,1,19,50,0,1,1,0.4201266,o,0.279408,162,45,55,1,0,3,1
2,1,19,50,0,1,1,0.3386514,o,0.246699,163,49,51,1,0,3,3
2,1,19,60,0,2,1,0.1365597,o,0.3126396,164,51,49,1,1,3,3
2,1,19,50,0,2,1,0.3202026,o,0.2634149,165,51,49,1,1,3,3
2,1,19,70,0,2,NaN,NaN,o,0.4483343,166,49,51,1,0,3,3
2,1,19,60,0,2,NaN,NaN,o,0.3669087,167,48,52,1,0,3,2
2,1,19,70,0,2,NaN,NaN,o,0.399632,168,49,51,1,0,3,3
2,1,19,70,0,1,NaN,NaN,o,0.412929,169,52,48,1,1,3,2
2,1,19,70,0,2,NaN,NaN,o,0.3308779,170,45,55,1,0,3,1
2,1,19,50,0,2,1,0.5188607,o,0.3812995,171,55,45,1,1,3,1
2,1,19,60,0,2,NaN,NaN,o,0.3173348,172,49,51,1,0,3,3
2,1,19,50,0,2,1,0.4236034,o,0.4117342,173,52,48,1,1,3,2
2,1,19,70,0,2,NaN,NaN,o,0.3315013,174,45,55,1,0,3,1
2,1,19,70,0,2,1,0.5045777,o,0.4295743,175,51,49,1,1,3,3
2,1,19,50,0,1,NaN,NaN,o,0.3160787,176,55,45,1,1,3,1
2,1,19,70,0,2,1,0.5515469,o,0.4791849,177,52,48,1,1,3,2
2,1,19,50,0,2,1,0.5891075,o,0.428061,178,51,49,1,1,3,3
2,1,19,50,0,2,NaN,NaN,o,0.2823604,179,45,55,1,0,3,1
2,1,19,70,0,2,NaN,NaN,o,1.1690583,180,45,55,1,0,3,1
2,1,19,60,0,2,NaN,NaN,o,0.7182734,181,48,52,1,0,3,2
2,1,19,70,0,2,1,0.564854,o,0.3632967,182,52,48,1,1,3,2
2,1,19,50,0,2,1,0.5031973,o,0.3956646,183,52,48,1,1,3,2
2,1,19,60,0,2,NaN,NaN,o,0.3506776,184,49,51,1,0,3,3
2,1,19,50,0,1,1,0.5376058,o,0.2966841,185,49,51,1,0,3,3
2,1,19,50,0,2,NaN,NaN,o,0.3149628,186,45,55,1,0,3,1
2,1,19,50,0,1,NaN,NaN,o,0.2823146,187,51,49,1,1,3,3
2,1,19,50,0,1,1,0.3290616,o,0.3477814,188,48,52,1,0,3,2
2,1,19,60,0,2,NaN,NaN,p,0.3843957,189,45,55,1,0,4,1
2,1,19,50,0,2,NaN,NaN,p,0.3485759,190,48,52,1,0,4,2
2,1,19,60,0,2,1,0.4343313,o,0.3120189,191,52,48,1,1,3,2
2,1,19,50,0,2,1,0.3985896,o,0.2947908,192,55,45,1,1,3,1
2,1,19,70,0,2,1,0.3381477,o,0.2584612,193,51,49,1,1,3,3
2,1,19,60,0,2,1,0.3021023,o,0.3292915,194,55,45,1,1,3,1
2,1,19,60,0,2,1,0.235997,o,0.3958495,195,51,49,1,1,3,3
2,1,19,70,0,2,NaN,NaN,o,0.318684,196,48,52,1,0,3,2
2,1,19,60,0,1,NaN,NaN,o,0.3343011,197,52,48,1,1,3,2
2,1,19,70,0,2,NaN,NaN,o,0.299706,198,45,55,1,0,3,1
2,1,19,70,0,2,1,0.5184294,o,0.3954329,199,52,48,1,1,3,2
2,1,19,60,0,2,NaN,NaN,o,0.1482952,200,48,52,1,0,3,2
2,1,19,70,0,2,1,0.4213873,o,0.4799357,201,55,45,1,1,3,1
2,1,19,60,0,2,1,0.3716969,o,0.3959075,202,55,45,1,1,3,1
2,1,19,50,0,2,1,0.7580819,o,0.3806901,203,55,45,1,1,3,1
2,1,19,70,0,2,NaN,NaN,o,0.2984247,204,49,51,1,0,3,3
2,1,19,50,0,2,NaN,NaN,o,0.3815693,205,45,55,1,0,3,1
2,1,19,70,0,2,NaN,NaN,o,0.0001182,206,49,51,1,0,3,3
2,1,19,70,0,2,1,0.4719367,o,0.4310628,207,51,49,1,1,3,3
2,1,19,60,0,2,NaN,NaN,o,0.2006206,208,49,51,1,0,3,3
2,1,19,50,0,2,1,0.4459369,o,0.4140746,209,51,49,1,1,3,3
2,1,19,60,0,2,NaN,NaN,o,1.0809635,210,49,51,1,0,3,3
2,1,19,50,0,2,NaN,NaN,o,0.2998845,211,49,51,1,0,3,3
2,1,19,50,0,2,1,0.1725314,o,0.8629252,212,52,48,1,1,3,2
2,1,19,50,0,1,NaN,NaN,o,0.5519672,213,51,49,1,1,3,3
2,1,19,70,0,2,NaN,NaN,o,0.3177624,214,49,51,1,0,3,3
2,1,19,70,0,1,NaN,NaN,o,0.5170152,215,52,48,1,1,3,2
2,1,19,70,0,2,NaN,NaN,o,0.2847365,216,49,51,1,0,3,3
2,1,19,70,0,2,NaN,NaN,o,0.3158307,217,48,52,1,0,3,2
2,1,19,60,0,2,NaN,NaN,o,0.2819939,218,45,55,1,0,3,1
2,1,19,70,0,2,NaN,NaN,o,0.2852912,219,45,55,1,0,3,1
2,1,19,70,0,1,NaN,NaN,o,0.2024377,220,52,48,1,1,3,2
2,1,19,70,0,2,1,0.5043139,o,0.4318037,221,55,45,1,1,3,1
2,1,19,50,0,2,NaN,NaN,o,0.1350215,222,45,55,1,0,3,1
2,1,19,50,0,2,NaN,NaN,o,0.2346338,223,45,55,1,0,3,1
2,1,19,50,0,1,1,0.4436904,o,0.3921973,224,48,52,1,0,3,2
2,1,19,50,0,2,1,0.3872555,o,0.4136254,225,55,45,1,1,3,1
2,1,19,50,0,2,1,0.4037675,o,0.3292074,226,51,49,1,1,3,3
2,1,19,60,0,2,NaN,NaN,o,0.1334925,227,49,51,1,0,3,3
2,1,19,70,0,2,NaN,NaN,o,0.3844182,228,45,55,1,0,3,1
2,1,19,60,0,2,1,0.3885973,o,0.398328,229,55,45,1,1,3,1
2,1,19,70,0,1,NaN,NaN,o,0.2016023,230,51,49,1,1,3,3
2,1,19,50,0,2,1,0.4313711,o,0.4310236,231,55,45,1,1,3,1
2,1,19,60,0,2,NaN,NaN,o,0.2991158,232,48,52,1,0,3,2
2,1,19,60,0,2,NaN,NaN,o,0.3174309,233,48,52,1,0,3,2
2,1,19,60,0,2,1,0.5723652,o,0.4949305,234,51,49,1,1,3,3
2,1,19,60,0,1,NaN,NaN,o,0.5648237,235,52,48,1,1,3,2
2,1,19,60,0,2,1,0.5188872,o,0.4315481,236,55,45,1,1,3,1
2,1,19,50,0,2,NaN,NaN,o,0.3183267,237,48,52,1,0,3,2
2,1,19,60,0,2,1,0.4387478,o,0.4451699,238,52,48,1,1,3,2
2,1,19,70,0,2,1,0.5199367,o,0.4137749,239,51,49,1,1,3,3
2,1,19,70,0,2,NaN,NaN,o,0.4338257,240,49,51,1,0,3,3
2,1,19,50,0,1,NaN,NaN,o,0.1177216,241,51,49,1,1,3,3
2,1,19,50,0,2,NaN,NaN,p,0.2675066,242,45,55,1,0,4,1
2,1,19,70,0,2,NaN,NaN,o,0.1345648,243,45,55,1,0,3,1
2,1,19,70,0,1,NaN,NaN,o,0.4515643,244,52,48,1,1,3,2
2,1,19,60,0,2,NaN,NaN,o,0.7180187,245,49,51,1,0,3,3
2,1,19,60,0,2,NaN,NaN,o,0.2512188,246,48,52,1,0,3,2
2,1,19,70,0,1,NaN,NaN,o,0.2511744,247,51,49,1,1,3,3
2,1,19,50,0,2,NaN,NaN,h,1.501443,248,48,52,1,0,9,2
2,1,19,50,0,1,NaN,NaN,o,0.6007919,249,51,49,1,1,3,3
2,1,19,50,0,2,NaN,NaN,o,0.3339648,250,48,52,1,0,3,2
2,1,19,50,0,2,1,0.35437,o,0.3963019,251,55,45,1,1,3,1
2,1,19,70,0,1,NaN,NaN,o,0.2984742,252,51,49,1,1,3,3
2,1,19,60,0,2,1,0.4193054,o,0.3289484,253,51,49,1,1,3,3
2,1,19,60,0,2,NaN,NaN,o,0.1830889,254,45,55,1,0,3,1
2,1,19,60,0,2,1,0.2251827,o,0.2629664,255,55,45,1,1,3,1
2,1,19,60,0,2,1,0.4028492,o,0.2143292,256,52,48,1,1,3,2
2,1,19,70,0,2,NaN,NaN,o,0.5008239,257,45,55,1,0,3,1
2,1,19,60,0,2,NaN,NaN,o,0.300489,258,48,52,1,0,3,2
2,1,19,50,0,2,1,0.3558153,o,0.2815919,259,52,48,1,1,3,2
2,1,19,50,0,2,NaN,NaN,p,0.282355,260,49,51,1,0,4,3
2,1,19,60,0,1,1,0.6051769,o,0.3462207,261,49,51,1,0,3,3
2,1,19,50,0,2,NaN,NaN,o,0.6673765,262,45,55,1,0,3,1
2,1,19,70,0,2,1,0.3561264,o,0.3133176,263,52,48,1,1,3,2
2,1,19,50,0,2,1,0.3162942,o,0.2137201,264,55,45,1,1,3,1
2,1,19,70,0,1,1,0.1541249,o,0.2635194,265,48,52,1,0,3,2
2,1,19,70,0,1,1,0.1508735,o,0.313313,266,49,51,1,0,3,3
2,1,19,60,0,1,NaN,NaN,o,0.3855399,267,52,48,1,1,3,2
2,1,19,70,0,2,1,0.3198835,o,0.3107031,268,55,45,1,1,3,1
2,1,19,60,0,2,1,0.3230765,p,0.3627283,269,55,45,1,1,4,1
2,1,19,70,0,1,NaN,NaN,o,0.2511711,270,52,48,1,1,3,2
2,1,19,60,0,2,NaN,NaN,o,0.2847982,271,49,51,1,0,3,3
2,1,19,70,0,2,NaN,NaN,o,0.0003989,272,49,51,1,0,3,3
2,1,19,60,0,2,1,0.4148877,o,0.3120333,273,55,45,1,1,3,1
2,1,19,60,0,1,1,0.3380957,o,0.2467341,274,48,52,1,0,3,2
2,1,19,50,0,2,NaN,NaN,o,0.4676352,275,45,55,1,0,3,1
2,1,19,60,0,2,NaN,NaN,o,0.2846878,276,49,51,1,0,3,3
2,1,19,60,0,2,NaN,NaN,o,0.2351796,277,48,52,1,0,3,2
2,1,19,50,0,2,1,0.4535579,o,0.3635864,278,55,45,1,1,3,1
2,1,19,50,0,1,1,0.4307423,o,0.2635212,279,48,52,1,0,3,2
2,1,19,50,0,2,NaN,NaN,o,0.4342265,280,49,51,1,0,3,3
2,1,19,60,0,2,NaN,NaN,p,0.3801447,281,45,55,1,0,4,1
2,1,19,70,0,2,1,0.4205513,o,0.3110505,282,52,48,1,1,3,2
2,1,19,70,0,2,1,0.3153629,o,0.3318349,283,51,49,1,1,3,3
2,1,19,50,0,1,NaN,NaN,o,0.2676971,284,51,49,1,1,3,3
2,1,19,70,0,2,NaN,NaN,o,0.285355,285,48,52,1,0,3,2
2,1,19,50,0,2,NaN,NaN,o,0.2842873,286,48,52,1,0,3,2
2,1,19,50,0,2,NaN,NaN,p,0.284737,287,45,55,1,0,4,1
2,1,19,70,0,2,NaN,NaN,o,0.2507405,288,45,55,1,0,3,1
2,1,19,70,0,2,NaN,NaN,o,0.167803,289,45,55,1,0,3,1
2,1,19,70,0,2,1,0.4396564,o,0.3616902,290,55,45,1,1,3,1
2,1,19,50,0,1,NaN,NaN,o,0.232139,291,51,49,1,1,3,3
2,1,19,70,0,1,1,0.5407133,o,0.3126361,292,49,51,1,0,3,3
2,1,19,70,0,2,1,0.6484885,o,0.3316569,293,51,49,1,1,3,3
2,1,19,50,0,2,1,0.4048879,o,0.2799644,294,55,45,1,1,3,1
2,1,19,60,0,1,NaN,NaN,o,0.2005735,295,51,49,1,1,3,3
2,1,19,60,0,2,1,0.2726662,o,0.2971215,296,55,45,1,1,3,1
2,1,19,50,0,2,1,0.5031175,o,0.2803039,297,52,48,1,1,3,2
2,1,19,60,0,2,1,0.37247,o,0.2299398,298,52,48,1,1,3,2
2,1,19,60,0,2,1,0.2382771,o,0.2630727,299,52,48,1,1,3,2
2,1,19,60,0,2,1,0.5544679,o,0.364797,300,55,45,1,1,3,1
2,1,19,60,0,2,NaN,NaN,o,0.3358699,301,49,51,1,0,3,3
2,1,19,50,0,2,NaN,NaN,o,0.3172937,302,49,51,1,0,3,3
2,1,19,50,0,2,NaN,NaN,o,0.2679356,303,45,55,1,0,3,1
2,1,19,60,0,1,1,0.3706221,o,0.328568,304,49,51,1,0,3,3
2,1,19,50,0,2,NaN,NaN,o,0.400989,305,48,52,1,0,3,2
2,1,19,70,0,2,1,0.4535083,o,0.2966598,306,51,49,1,1,3,3
2,1,19,50,0,2,1,0.4348624,o,0.2642519,307,51,49,1,1,3,3
2,1,19,70,0,2,NaN,NaN,o,0.1348348,308,45,55,1,0,3,1
2,1,19,60,0,2,1,0.343995,o,0.2315932,309,52,48,1,1,3,2
2,1,19,70,0,2,1,0.5051306,o,0.2143887,310,52,48,1,1,3,2
2,1,19,70,0,1,NaN,NaN,o,0.3341941,311,51,49,1,1,3,3
2,1,19,70,0,2,1,0.4527654,o,0.2617492,312,52,48,1,1,3,2
2,1,19,70,0,1,1,0.485084,o,0.6285519,313,48,52,1,0,3,2
2,1,19,70,0,2,NaN,NaN,o,0.2335082,314,45,55,1,0,3,1
2,1,19,60,0,1,1,0.6903516,o,0.4637289,315,48,52,1,0,3,2
2,1,19,50,0,2,NaN,NaN,o,0.2176593,316,45,55,1,0,3,1
2,1,19,50,0,2,1,0.386978,o,0.3149833,317,55,45,1,1,3,1
2,1,19,60,0,1,1,0.4053859,o,0.2810108,318,48,52,1,0,3,2
2,1,19,70,0,2,1,0.2692831,o,0.2974234,319,55,45,1,1,3,1
2,1,19,50,0,2,1,0.3217492,o,0.2979112,320,51,49,1,1,3,3
2,1,19,60,0,2,1,0.1874718,o,0.3121279,321,51,49,1,1,3,3
2,1,19,60,0,2,NaN,NaN,o,0.3172615,322,45,55,1,0,3,1
2,1,19,70,0,2,NaN,NaN,o,0.2845619,323,49,51,1,0,3,3
2,1,19,50,0,2,1,0.4529342,o,0.3308475,324,52,48,1,1,3,2
2,1,19,60,0,2,1,0.6463831,o,0.2645134,325,55,45,1,1,3,1
2,1,19,60,0,2,1,0.3722492,o,0.2808507,326,52,48,1,1,3,2
2,1,19,50,0,2,NaN,NaN,o,0.2843623,327,48,52,1,0,3,2
2,1,19,70,0,1,1,0.5190094,o,0.2308567,328,49,51,1,0,3,3
2,1,19,50,0,2,1,0.4362161,o,0.2958013,329,55,45,1,1,3,1
2,1,19,70,0,2,1,0.3546419,o,0.3137779,330,55,45,1,1,3,1
2,1,19,50,0,1,1,0.3203968,o,0.296358,331,48,52,1,0,3,2
2,1,19,60,0,2,1,0.4013257,o,0.2488871,332,55,45,1,1,3,1
2,1,19,50,0,2,1,0.44609,h,1.4979134,333,52,48,1,1,9,2
2,1,19,50,0,1,NaN,NaN,o,0.7837709,334,51,49,1,1,3,3
2,1,19,70,0,1,1,0.756184,o,0.2810385,335,49,51,1,0,3,3
2,1,19,50,0,2,NaN,NaN,o,0.301483,336,48,52,1,0,3,2
2,1,19,50,0,2,1,0.4308044,o,0.2131359,337,51,49,1,1,3,3
2,1,19,60,0,1,1,0.4199086,o,0.2630286,338,49,51,1,0,3,3
2,1,19,50,0,2,NaN,NaN,o,0.2818451,339,45,55,1,0,3,1
2,1,19,70,0,2,NaN,NaN,o,0.2519521,340,48,52,1,0,3,2
2,1,19,60,0,2,1,0.3698617,o,0.3483965,341,55,45,1,1,3,1
2,1,19,60,0,1,1,0.9557114,o,0.2134596,342,48,52,1,0,3,2
2,1,19,70,0,2,NaN,NaN,p,0.0672289,343,45,55,1,0,4,1
2,1,19,50,0,2,1,0.6673363,o,0.2810842,344,55,45,1,1,3,1
2,1,19,70,0,2,1,0.488473,o,0.1975246,345,52,48,1,1,3,2
2,1,19,70,0,1,1,0.4714295,o,0.1967471,346,49,51,1,0,3,3
2,1,19,70,0,1,NaN,NaN,o,0.2816279,347,52,48,1,1,3,2
2,1,19,50,0,2,1,0.3298092,o,0.2463091,348,55,45,1,1,3,1
2,1,19,70,0,1,NaN,NaN,o,0.1324337,349,51,49,1,1,3,3
2,1,19,50,0,2,NaN,NaN,o,0.1830424,350,45,55,1,0,3,1
2,1,19,70,0,2,1,0.5397374,o,0.2973911,351,51,49,1,1,3,3
2,1,19,60,0,1,NaN,NaN,o,0.2345266,352,52,48,1,1,3,2
2,1,19,60,0,2,NaN,NaN,o,0.284191,353,45,55,1,0,3,1
2,1,19,60,0,2,NaN,NaN,o,0.3340219,354,49,51,1,0,3,3
2,1,19,50,0,2,NaN,NaN,o,0.2190423,355,49,51,1,0,3,3
2,1,19,60,0,2,NaN,NaN,o,0.2492874,356,48,52,1,0,3,2
2,1,19,60,0,1,NaN,NaN,o,0.4484758,357,51,49,1,1,3,3
2,1,19,60,0,2,1,0.8042586,o,0.3313509,358,52,48,1,1,3,2
2,1,19,70,0,2,NaN,NaN,o,0.3169375,359,45,55,1,0,3,1
2,1,19,70,0,2,NaN,NaN,o,0.2812994,360,45,55,1,0,3,1
2,1,19,60,0,2,1,0.4880642,o,0.3302718,361,52,48,1,1,3,2
2,1,19,70,0,2,1,0.7562806,o,0.2634072,362,55,45,1,1,3,1
2,1,19,50,0,2,NaN,NaN,o,0.267926,363,45,55,1,0,3,1
2,1,19,70,0,2,NaN,NaN,o,0.3174117,364,49,51,1,0,3,3
2,1,19,60,0,2,1,0.488241,o,0.1977638,365,55,45,1,1,3,1
2,1,19,60,0,2,1,0.6843393,o,0.3310142,366,52,48,1,1,3,2
2,1,19,50,0,2,1,0.4214654,o,0.2643159,367,55,45,1,1,3,1
2,1,19,70,0,1,NaN,NaN,o,0.2810762,368,51,49,1,1,3,3
2,1,19,70,0,2,NaN,NaN,o,0.2844988,369,49,51,1,0,3,3
2,1,19,50,0,2,NaN,NaN,o,0.300536,370,48,52,1,0,3,2
2,1,19,50,0,2,NaN,NaN,o,0.200924,371,45,55,1,0,3,1
2,1,19,50,0,2,NaN,NaN,o,0.2353795,372,49,51,1,0,3,3
2,1,19,70,0,2,1,0.4063338,o,0.2647156,373,52,48,1,1,3,2
2,1,19,60,0,2,NaN,NaN,o,0.2848508,374,49,51,1,0,3,3
2,1,19,50,0,1,1,0.3524438,o,0.2309888,375,48,52,1,0,3,2
2,1,19,50,0,1,NaN,NaN,o,0.3979992,376,51,49,1,1,3,3
2,1,19,70,0,2,1,0.8073537,o,0.2297174,377,52,48,1,1,3,2
2,1,19,50,0,2,1,0.4410161,o,0.2289327,378,55,45,1,1,3,1
2,1,19,60,0,2,NaN,NaN,o,0.7007372,379,48,52,1,0,3,2
2,1,19,50,0,2,1,0.5242519,o,0.2150483,380,52,48,1,1,3,2
2,1,19,60,0,2,NaN,NaN,o,0.0518476,381,48,52,1,0,3,2
2,1,19,70,0,1,1,0.388928,o,0.2469179,382,48,52,1,0,3,2
2,1,19,70,0,2,NaN,NaN,o,0.1177588,383,45,55,1,0,3,1
2,1,19,60,0,2,NaN,NaN,o,0.2813503,384,45,55,1,0,3,1
2,1,19,60,0,2,NaN,NaN,o,0.0343866,385,49,51,1,0,3,3
2,1,19,60,0,2,1,0.4480685,o,0.3301753,386,51,49,1,1,3,3
2,1,19,50,0,2,1,0.3847332,o,0.8468717,387,51,49,1,1,3,3
2,1,19,70,0,2,1,0.386988,o,0.3147113,388,51,49,1,1,3,3
2,1,19,60,0,2,1,0.4116682,o,0.2645593,389,55,45,1,1,3,1
2,1,19,60,1,1,NaN,NaN,o,0.415295,0,49,51,2,1,3,3
2,1,19,70,1,2,1,0.4305213,o,0.2961491,1,49,51,2,1,3,3
2,1,19,50,1,2,NaN,NaN,p,0.252161,2,52,48,2,0,4,2
2,1,19,70,1,2,NaN,NaN,o,0.3019393,3,52,48,2,0,3,2
2,1,19,50,1,2,1,0.7711475,o,0.2982733,4,48,52,2,1,3,2
2,1,19,50,1,2,NaN,NaN,o,0.2313067,5,55,45,2,0,3,1
2,1,19,70,1,2,NaN,NaN,p,0.1646035,6,55,45,2,0,4,1
2,1,19,60,1,2,1,0.3718189,o,0.3471221,7,49,51,2,1,3,3
2,1,19,70,1,1,NaN,NaN,o,1.8518411,9,49,51,2,1,3,3
2,1,19,60,1,2,NaN,NaN,o,0.5350268,10,55,45,2,0,3,1
2,1,19,70,1,1,1,0.2387968,o,0.3624457,11,51,49,2,0,3,3
2,1,19,60,1,1,1,0.6539989,o,0.2793983,12,51,49,2,0,3,3
2,1,19,60,1,2,1,0.2537578,o,0.3133773,13,48,52,2,1,3,2
2,1,19,50,1,2,1,0.2727824,o,0.2796427,14,45,55,2,1,3,1
2,1,19,70,1,2,NaN,NaN,o,0.700902,15,52,48,2,0,3,2
2,1,19,50,1,1,1,0.3707132,o,0.3307636,16,55,45,2,0,3,1
2,1,19,50,1,2,1,0.488458,o,0.279603,17,45,55,2,1,3,1
2,1,19,60,1,2,1,0.3727814,o,0.2810886,18,45,55,2,1,3,1
2,1,19,50,1,1,NaN,NaN,o,0.3511731,19,48,52,2,1,3,2
2,1,19,50,1,2,NaN,NaN,o,0.2844635,20,51,49,2,0,3,3
2,1,19,50,1,1,1,0.1883788,o,0.3478139,21,51,49,2,0,3,3
2,1,19,70,1,2,1,0.2727905,o,0.280194,22,48,52,2,1,3,2
2,1,19,60,1,1,1,0.2711803,o,0.3301299,23,52,48,2,0,3,2
2,1,19,60,1,1,1,0.3370172,o,0.2954112,24,52,48,2,0,3,2
2,1,19,70,1,1,1,0.4718866,h,1.6808897,25,51,49,2,0,9,3
2,1,19,70,1,2,1,0.9427417,o,0.680532,26,45,55,2,1,3,1
2,1,19,50,1,2,1,0.4318939,o,0.3638499,27,49,51,2,1,3,3
2,1,19,60,1,2,1,0.9370711,o,0.3963855,28,48,52,2,1,3,2
2,1,19,60,1,2,NaN,NaN,o,0.2993818,29,55,45,2,0,3,1
2,1,19,50,1,2,1,0.8180333,o,0.380871,30,48,52,2,1,3,2
2,1,19,70,1,1,1,0.5043965,o,0.2796407,31,51,49,2,0,3,3
2,1,19,60,1,2,1,0.4692694,o,0.2969722,32,49,51,2,1,3,3
2,1,19,70,1,2,NaN,NaN,o,0.4021135,33,55,45,2,0,3,1
2,1,19,70,1,2,1,0.8530742,o,0.2649103,34,49,51,2,1,3,3
2,1,19,60,1,2,1,0.4561762,o,0.2029159,35,48,52,2,1,3,2
2,1,19,60,1,1,1,0.4707291,o,0.2793036,36,52,48,2,0,3,2
2,1,19,60,1,2,1,0.3299715,o,0.2804064,37,48,52,2,1,3,2
2,1,19,70,1,2,NaN,NaN,o,0.3821682,38,51,49,2,0,3,3
2,1,19,70,1,2,1,0.4360624,o,0.2298751,39,49,51,2,1,3,3
2,1,19,50,1,2,1,0.2927539,o,0.2459069,40,45,55,2,1,3,1
2,1,19,70,1,2,1,0.5066111,o,0.2312794,41,48,52,2,1,3,2
2,1,19,50,1,1,1,0.2224097,o,0.3482737,42,55,45,2,0,3,1
2,1,19,60,1,1,NaN,NaN,o,0.3154481,43,49,51,2,1,3,3
2,1,19,60,1,1,1,0.1881139,o,0.2811342,44,51,49,2,0,3,3
2,1,19,60,1,2,NaN,NaN,p,0.3483683,45,55,45,2,0,4,1
2,1,19,70,1,2,1,0.3547193,o,0.3469672,47,45,55,2,1,3,1
2,1,19,70,1,1,1,0.5087005,p,0.4298069,48,52,48,2,0,4,2
2,1,19,70,1,2,NaN,NaN,o,0.7511369,49,52,48,2,0,3,2
2,1,19,60,1,1,1,0.3829398,o,0.2978535,50,52,48,2,0,3,2
2,1,19,60,1,2,1,0.3043556,o,0.4012715,51,45,55,2,1,3,1
2,1,19,50,1,2,1,0.1546622,o,0.3131773,52,49,51,2,1,3,3
2,1,19,70,1,2,1,0.1706012,o,0.2785038,53,45,55,2,1,3,1
2,1,19,50,1,2,1,0.186818,p,0.2969274,54,48,52,2,1,4,2
2,1,19,50,1,1,1,0.3222704,o,0.2468384,55,51,49,2,0,3,3
2,1,19,60,1,1,1,0.2380607,p,0.446802,56,55,45,2,0,4,1
2,1,19,50,1,1,1,0.1376979,o,0.2958191,57,52,48,2,0,3,2
2,1,19,50,1,2,NaN,NaN,o,0.3348007,58,55,45,2,0,3,1
2,1,19,50,1,1,1,0.3155636,o,0.2638439,59,51,49,2,0,3,3
2,1,19,50,1,2,1,0.7364144,o,0.4129007,60,48,52,2,1,3,2
2,1,19,70,1,2,1,0.1698667,o,0.2466882,61,48,52,2,1,3,2
2,1,19,50,1,1,1,0.2215697,o,0.2465219,62,51,49,2,0,3,3
2,1,19,50,1,2,1,0.7373674,o,0.2462276,63,45,55,2,1,3,1
2,1,19,60,1,2,NaN,NaN,o,0.2148615,64,52,48,2,0,3,2
2,1,19,60,1,2,NaN,NaN,o,0.1843152,65,52,48,2,0,3,2
2,1,19,50,1,2,NaN,NaN,o,0.3339774,66,51,49,2,0,3,3
2,1,19,60,1,2,NaN,NaN,o,0.235704,67,51,49,2,0,3,3
2,1,19,70,1,1,1,0.1954193,o,0.2965749,68,52,48,2,0,3,2
2,1,19,60,1,1,1,0.7527351,o,0.3308806,69,55,45,2,0,3,1
2,1,19,50,1,1,NaN,NaN,o,0.2510922,70,49,51,2,1,3,3
2,1,19,70,1,1,NaN,NaN,o,0.0508816,71,45,55,2,1,3,1
2,1,19,70,1,2,1,0.6679333,o,0.2300993,72,49,51,2,1,3,3
2,1,19,60,1,2,1,0.854816,o,0.3451145,73,48,52,2,1,3,2
2,1,19,60,1,2,1,0.3888837,o,0.2148099,74,45,55,2,1,3,1
2,1,19,60,1,2,1,0.2552725,o,0.2311646,75,48,52,2,1,3,2
2,1,19,70,1,1,1,0.9120269,o,0.1969294,76,51,49,2,0,3,3
2,1,19,50,1,2,NaN,NaN,o,0.2834265,77,55,45,2,0,3,1
2,1,19,60,1,1,1,0.518116,o,0.2468106,78,55,45,2,0,3,1
2,1,19,70,1,2,NaN,NaN,o,0.0465814,79,51,49,2,0,3,3
2,1,19,70,1,2,1,0.8341109,o,0.2610089,80,45,55,2,1,3,1
2,1,19,50,1,2,NaN,NaN,o,0.2186365,81,52,48,2,0,3,2
2,1,19,70,1,1,1,0.38673,h,1.7144364,82,55,45,2,0,9,1
2,1,19,50,1,1,1,0.7200359,h,1.2314035,83,55,45,2,0,9,1
2,1,19,50,1,2,1,0.6669047,o,0.2795837,84,48,52,2,1,3,2
2,1,19,50,1,2,1,0.5712863,o,0.3304205,85,45,55,2,1,3,1
2,1,19,70,1,2,NaN,NaN,o,0.2673612,86,52,48,2,0,3,2
2,1,19,60,1,2,1,0.7647225,o,0.2798552,87,49,51,2,1,3,3
2,1,19,70,1,2,1,0.9150498,o,0.3628015,88,49,51,2,1,3,3
2,1,19,60,1,2,1,0.540047,o,0.2482245,89,49,51,2,1,3,3
2,1,19,50,1,2,NaN,NaN,o,0.3985284,90,55,45,2,0,3,1
2,1,19,60,1,1,1,0.4214742,o,0.3133693,91,52,48,2,0,3,2
2,1,19,70,1,2,1,0.5642771,o,0.3122537,92,49,51,2,1,3,3
2,1,19,70,1,1,1,0.3676043,o,0.246819,93,52,48,2,0,3,2
2,1,19,60,1,1,1,0.7061054,o,0.5302271,94,52,48,2,0,3,2
2,1,19,50,1,2,NaN,NaN,o,0.2136543,95,51,49,2,0,3,3
2,1,19,50,1,2,1,0.2506145,o,0.2633268,96,49,51,2,1,3,3
2,1,19,60,1,2,NaN,NaN,o,0.2645183,97,55,45,2,0,3,1
2,1,19,60,1,2,1,0.388045,o,0.2480065,98,49,51,2,1,3,3
2,1,19,70,1,2,1,0.4558176,o,0.2809872,99,48,52,2,1,3,2
2,1,19,60,1,1,1,0.4376243,o,0.2468438,100,51,49,2,0,3,3
2,1,19,70,1,2,NaN,NaN,o,0.1319586,101,55,45,2,0,3,1
2,1,19,70,1,2,NaN,NaN,o,0.2835801,102,51,49,2,0,3,3
2,1,19,70,1,1,NaN,NaN,o,0.031656,103,49,51,2,1,3,3
2,1,19,50,1,2,1,0.4030656,o,0.2458839,104,48,52,2,1,3,2
2,1,19,50,1,2,NaN,NaN,o,0.1340825,105,51,49,2,0,3,3
2,1,19,50,1,2,1,0.552368,o,0.2286791,106,45,55,2,1,3,1
2,1,19,60,1,1,NaN,NaN,o,0.6682091,107,48,52,2,1,3,2
2,1,19,60,1,2,1,0.390536,o,0.2963815,108,48,52,2,1,3,2
2,1,19,50,1,2,NaN,NaN,o,0.3008143,109,55,45,2,0,3,1
2,1,19,50,1,1,1,0.4174909,o,0.7472741,110,52,48,2,0,3,2
2,1,19,60,1,2,1,0.590539,o,0.3631493,111,45,55,2,1,3,1
2,1,19,50,1,2,1,0.8371805,o,0.4132137,112,45,55,2,1,3,1
2,1,19,60,1,1,NaN,NaN,o,0.3820548,113,49,51,2,1,3,3
2,1,19,50,1,2,1,0.4456001,o,0.264394,114,48,52,2,1,3,2
2,1,19,70,1,2,1,0.4669378,o,0.280745,115,45,55,2,1,3,1
2,1,19,70,1,2,NaN,NaN,o,0.1343745,116,52,48,2,0,3,2
2,1,19,60,1,2,NaN,NaN,o,1.265786,117,55,45,2,0,3,1
2,1,19,70,1,1,1,0.7058309,h,1.2127956,118,51,49,2,0,9,3
2,1,19,70,1,2,1,0.3907277,o,0.3303035,119,45,55,2,1,3,1
2,1,19,60,1,2,1,0.430595,o,0.3130256,120,49,51,2,1,3,3
2,1,19,70,1,2,NaN,NaN,o,0.2020281,121,51,49,2,0,3,3
2,1,19,70,1,2,1,0.4727037,o,0.281558,122,45,55,2,1,3,1
2,1,19,50,1,1,NaN,NaN,o,0.3652664,123,45,55,2,1,3,1
2,1,19,70,1,2,1,0.3568494,o,0.2645758,124,48,52,2,1,3,2
2,1,19,60,1,2,1,0.8549068,o,0.296394,125,48,52,2,1,3,2
2,1,19,60,1,2,NaN,NaN,o,0.2840691,126,55,45,2,0,3,1
2,1,19,50,1,2,1,0.3711303,o,0.2634965,127,45,55,2,1,3,1
2,1,19,50,1,2,NaN,NaN,o,0.2149191,128,55,45,2,0,3,1
2,1,19,60,1,2,1,0.3917443,o,0.2144598,129,45,55,2,1,3,1
2,1,19,50,1,2,1,0.4377501,o,0.1637869,130,49,51,2,1,3,3
2,1,19,50,1,1,1,0.6051381,o,0.280609,131,51,49,2,0,3,3
2,1,19,70,1,2,NaN,NaN,o,0.2319312,132,52,48,2,0,3,2
2,1,19,50,1,2,1,0.3148034,o,0.2471923,133,48,52,2,1,3,2
2,1,19,70,1,2,NaN,NaN,o,0.3175771,134,55,45,2,0,3,1
2,1,19,60,1,2,NaN,NaN,o,0.2168184,135,51,49,2,0,3,3
2,1,19,50,1,2,NaN,NaN,o,0.5834836,136,51,49,2,0,3,3
2,1,19,70,1,2,1,0.3793778,o,0.2958538,137,49,51,2,1,3,3
2,1,19,70,1,2,1,0.3052437,o,0.2982968,138,45,55,2,1,3,1
2,1,19,50,1,2,1,0.3889389,o,0.2309407,139,48,52,2,1,3,2
2,1,19,60,1,1,NaN,NaN,o,0.150434,140,48,52,2,1,3,2
2,1,19,70,1,2,1,0.1881863,o,0.2467236,141,49,51,2,1,3,3
2,1,19,50,1,2,NaN,NaN,o,0.2477445,142,55,45,2,0,3,1
2,1,19,70,1,1,1,0.4706295,o,0.2292977,143,51,49,2,0,3,3
2,1,19,60,1,1,1,0.3696242,o,0.2283443,144,52,48,2,0,3,2
2,1,19,50,1,2,NaN,NaN,o,0.2016638,145,52,48,2,0,3,2
2,1,19,70,1,1,1,0.5246203,o,0.2148557,146,52,48,2,0,3,2
2,1,19,60,1,1,1,0.4741174,o,0.1982107,147,52,48,2,0,3,2
2,1,19,60,1,2,1,0.3716114,o,0.1809788,148,49,51,2,1,3,3
2,1,19,60,1,2,NaN,NaN,o,0.3178363,149,55,45,2,0,3,1
2,1,19,50,1,2,NaN,NaN,o,0.3509042,150,52,48,2,0,3,2
2,1,19,60,1,2,1,0.3495836,o,0.2466436,151,48,52,2,1,3,2
2,1,19,70,1,2,NaN,NaN,o,0.3830254,152,52,48,2,0,3,2
2,1,19,50,1,2,1,0.68876,o,0.2813047,153,45,55,2,1,3,1
2,1,19,50,1,2,1,0.4726992,o,0.3809,154,45,55,2,1,3,1
2,1,19,70,1,2,1,0.576495,o,0.2806594,155,49,51,2,1,3,3
2,1,19,50,1,1,1,0.5538814,o,0.246003,156,51,49,2,0,3,3
2,1,19,70,1,2,1,0.3578264,o,0.2118493,157,45,55,2,1,3,1
2,1,19,50,1,1,NaN,NaN,o,0.2650576,158,48,52,2,1,3,2
2,1,19,60,1,2,1,0.4354533,o,0.2135259,159,45,55,2,1,3,1
2,1,19,50,1,2,1,0.4536827,p,0.2798307,160,48,52,2,1,4,2
2,1,19,60,1,2,1,0.447014,p,0.3147188,161,49,51,2,1,4,3
2,1,19,50,1,2,NaN,NaN,o,0.2676435,162,55,45,2,0,3,1
2,1,19,60,1,2,NaN,NaN,p,0.067858,163,55,45,2,0,4,1
2,1,19,60,1,1,1,0.7730576,p,0.3457774,164,51,49,2,0,4,3
2,1,19,60,1,2,1,0.438747,o,0.2970787,165,48,52,2,1,3,2
2,1,19,70,1,2,NaN,NaN,p,0.3169196,166,55,45,2,0,4,1
2,1,19,50,1,2,NaN,NaN,p,0.2991871,167,51,49,2,0,4,3
2,1,19,70,1,2,1,0.6873389,o,0.3635472,168,45,55,2,1,3,1
2,1,19,60,1,2,NaN,NaN,p,0.7676527,169,52,48,2,0,4,2
2,1,19,60,1,2,NaN,NaN,o,0.2514824,170,55,45,2,0,3,1
2,1,19,60,1,2,NaN,NaN,o,0.2676058,171,52,48,2,0,3,2
2,1,19,60,1,2,1,0.3168762,o,0.8811023,172,49,51,2,1,3,3
2,1,19,70,1,2,NaN,NaN,o,0.3305951,173,52,48,2,0,3,2
2,1,19,70,1,1,1,0.8867499,o,0.2785318,175,51,49,2,0,3,3
2,1,19,50,1,2,1,0.4043025,o,0.3134866,176,49,51,2,1,3,3
2,1,19,70,1,1,1,0.3564606,o,0.2306357,177,51,49,2,0,3,3
2,1,19,50,1,2,NaN,NaN,o,0.318655,178,55,45,2,0,3,1
2,1,19,70,1,2,1,0.390498,o,0.2648546,179,48,52,2,1,3,2
2,1,19,60,1,2,1,0.5215227,o,0.330364,180,48,52,2,1,3,2
2,1,19,60,1,1,1,0.8046933,o,0.2802766,181,52,48,2,0,3,2
2,1,19,60,1,1,NaN,NaN,o,0.0332775,182,49,51,2,1,3,3
2,1,19,60,1,2,1,0.352086,o,0.2451283,183,45,55,2,1,3,1
2,1,19,60,1,2,NaN,NaN,o,0.6155579,184,55,45,2,0,3,1
2,1,19,70,1,2,NaN,NaN,p,0.1350088,185,51,49,2,0,4,3
2,1,19,50,1,2,NaN,NaN,o,0.2847814,186,51,49,2,0,3,3
2,1,19,50,1,2,1,0.4888376,o,0.2137914,187,48,52,2,1,3,2
2,1,19,70,1,2,1,0.4645513,o,0.2134865,188,45,55,2,1,3,1
2,1,19,70,1,2,1,0.339108,o,0.230414,189,48,52,2,1,3,2
2,1,19,70,1,2,NaN,NaN,o,0.3340281,190,51,49,2,0,3,3
2,1,19,70,1,1,1,0.2380498,o,0.2634648,191,52,48,2,0,3,2
2,1,19,50,1,2,NaN,NaN,o,0.1328121,192,51,49,2,0,3,3
2,1,19,60,1,2,1,0.2039193,o,0.2144372,193,49,51,2,1,3,3
2,1,19,60,1,1,1,0.4048188,o,0.2142929,194,51,49,2,0,3,3
2,1,19,50,1,2,NaN,NaN,o,0.0341021,195,55,45,2,0,3,1
2,1,19,70,1,2,NaN,NaN,o,0.249055,196,55,45,2,0,3,1
2,1,19,70,1,2,1,0.2035683,o,0.2459706,197,49,51,2,1,3,3
2,1,19,70,1,1,NaN,NaN,o,0.3173617,198,45,55,2,1,3,1
2,1,19,50,1,2,1,0.3211561,o,0.2300106,199,45,55,2,1,3,1
2,1,19,60,1,2,NaN,NaN,o,0.2666654,200,55,45,2,0,3,1
2,1,19,50,1,2,1,0.3056992,o,0.2314553,201,45,55,2,1,3,1
2,1,19,50,1,2,NaN,NaN,o,0.0179263,202,52,48,2,0,3,2
2,1,19,50,1,2,1,0.2220918,o,0.2644511,203,48,52,2,1,3,2
2,1,19,70,1,2,NaN,NaN,o,0.098272,204,52,48,2,0,3,2
2,1,19,50,1,2,1,0.4725018,o,0.2466699,205,49,51,2,1,3,3
2,1,19,50,1,1,1,0.6575445,h,1.3624131,206,55,45,2,0,9,1
2,1,19,60,1,2,NaN,NaN,o,1.0319055,207,52,48,2,0,3,2
2,1,19,70,1,2,1,0.3149134,o,0.2626099,208,49,51,2,1,3,3
2,1,19,60,1,2,1,0.3384225,o,0.2143587,209,48,52,2,1,3,2
2,1,19,50,1,2,1,0.7876567,o,0.3308791,210,48,52,2,1,3,2
2,1,19,70,1,2,1,0.2211085,o,0.2300192,211,45,55,2,1,3,1
2,1,19,70,1,2,1,0.6008261,o,0.2642387,212,49,51,2,1,3,3
2,1,19,50,1,2,1,0.354141,o,0.2306291,213,45,55,2,1,3,1
2,1,19,60,1,1,1,0.4878391,o,0.2301632,214,55,45,2,0,3,1
2,1,19,50,1,1,1,0.6380808,o,0.2296607,215,51,49,2,0,3,3
2,1,19,70,1,2,NaN,NaN,o,0.3005842,216,52,48,2,0,3,2
2,1,19,50,1,2,NaN,NaN,o,0.2512553,217,52,48,2,0,3,2
2,1,19,60,1,2,NaN,NaN,o,0.8678843,218,55,45,2,0,3,1
2,1,19,50,1,2,NaN,NaN,o,0.3013495,219,51,49,2,0,3,3
2,1,19,60,1,2,NaN,NaN,o,0.2162639,220,52,48,2,0,3,2
2,1,19,70,1,2,NaN,NaN,o,0.3493973,221,52,48,2,0,3,2
2,1,19,70,1,1,NaN,NaN,o,0.6667985,222,49,51,2,1,3,3
2,1,19,50,1,2,NaN,NaN,o,0.3143438,223,55,45,2,0,3,1
2,1,19,70,1,2,1,0.4177356,o,0.2627818,224,45,55,2,1,3,1
2,1,19,60,1,2,1,0.5697419,o,0.2314601,225,49,51,2,1,3,3
2,1,19,60,1,2,NaN,NaN,o,0.2687189,226,52,48,2,0,3,2
2,1,19,50,1,2,1,0.8720923,o,0.3816008,227,49,51,2,1,3,3
2,1,19,60,1,2,NaN,NaN,o,0.2482274,228,51,49,2,0,3,3
2,1,19,70,1,2,NaN,NaN,o,0.3178021,229,55,45,2,0,3,1
2,1,19,50,1,2,1,0.4713278,o,0.2630802,230,48,52,2,1,3,2
2,1,19,60,1,2,1,0.4223835,o,0.2637117,231,48,52,2,1,3,2
2,1,19,50,1,2,NaN,NaN,o,0.1482216,232,55,45,2,0,3,1
2,1,19,70,1,2,1,0.2890576,o,0.2479008,233,48,52,2,1,3,2
2,1,19,60,1,2,1,0.6546602,o,0.2809797,234,49,51,2,1,3,3
2,1,19,50,1,2,1,0.4206772,o,0.2634031,235,45,55,2,1,3,1
2,1,19,60,1,2,1,0.1914561,o,0.2133224,236,48,52,2,1,3,2
2,1,19,70,1,2,NaN,NaN,o,0.1488591,237,51,49,2,0,3,3
2,1,19,60,1,2,1,0.355899,o,0.2294328,238,45,55,2,1,3,1
2,1,19,70,1,2,NaN,NaN,o,0.0508971,239,51,49,2,0,3,3
2,1,19,60,1,2,1,0.848316,o,0.3634935,240,49,51,2,1,3,3
2,1,19,70,1,1,1,0.4519626,o,0.2645862,241,51,49,2,0,3,3
2,1,19,60,1,2,1,0.1793215,o,0.2603449,242,49,51,2,1,3,3
2,1,19,50,1,2,1,0.2387452,o,0.2305572,243,48,52,2,1,3,2
2,1,19,60,1,2,NaN,NaN,o,0.1506438,244,51,49,2,0,3,3
2,1,19,70,1,2,1,0.1205836,o,0.2123977,245,48,52,2,1,3,2
2,1,19,50,1,2,NaN,NaN,o,0.0659268,246,51,49,2,0,3,3
2,1,19,60,1,2,1,0.2555042,o,0.1964933,247,45,55,2,1,3,1
2,1,19,60,1,2,1,0.4709593,o,0.246172,248,48,52,2,1,3,2
2,1,19,50,1,2,NaN,NaN,p,0.2672904,249,55,45,2,0,4,1
2,1,19,70,1,1,1,0.6794498,o,0.3642614,250,52,48,2,0,3,2
2,1,19,50,1,2,1,0.5381125,o,0.1978956,251,49,51,2,1,3,3
2,1,19,60,1,1,1,0.4971336,o,0.1635641,252,52,48,2,0,3,2
2,1,19,50,1,2,NaN,NaN,o,0.3177083,253,51,49,2,0,3,3
2,1,19,60,1,1,1,0.491855,o,0.230228,254,55,45,2,0,3,1
2,1,19,70,1,2,1,0.5417278,o,0.4301519,255,49,51,2,1,3,3
2,1,19,70,1,2,NaN,NaN,o,0.1505246,256,55,45,2,0,3,1
2,1,19,60,1,2,NaN,NaN,o,0.2849784,257,52,48,2,0,3,2
2,1,19,70,1,2,NaN,NaN,o,0.1183414,258,51,49,2,0,3,3
2,1,19,60,1,1,NaN,NaN,o,0.2841323,259,48,52,2,1,3,2
2,1,19,50,1,2,NaN,NaN,o,0.1007194,260,55,45,2,0,3,1
2,1,19,70,1,2,NaN,NaN,o,0.333868,261,52,48,2,0,3,2
2,1,19,50,1,2,1,0.6360891,o,0.2114407,262,45,55,2,1,3,1
2,1,19,70,1,2,1,0.2543793,o,0.212731,263,45,55,2,1,3,1
2,1,19,70,1,2,1,0.2198705,o,0.2455749,264,49,51,2,1,3,3
2,1,19,50,1,2,1,0.5202971,o,0.2803324,265,48,52,2,1,3,2
2,1,19,50,1,2,1,0.4194795,o,0.1812473,266,45,55,2,1,3,1
2,1,19,70,1,2,1,0.421287,o,0.1980652,267,45,55,2,1,3,1
2,1,19,50,1,1,1,0.7382694,o,0.2476605,268,52,48,2,0,3,2
2,1,19,60,1,1,1,0.4179388,o,0.17875,269,55,45,2,0,3,1
2,1,19,60,1,2,1,0.5318761,o,0.2955018,270,48,52,2,1,3,2
2,1,19,50,1,2,1,0.3054628,o,0.2472549,271,48,52,2,1,3,2
2,1,19,50,1,2,1,0.2544927,o,0.2123662,272,45,55,2,1,3,1
2,1,19,50,1,2,1,0.5413528,o,0.2646191,273,48,52,2,1,3,2
2,1,19,60,1,1,1,0.4483189,o,0.2312526,274,52,48,2,0,3,2
2,1,19,60,1,2,NaN,NaN,p,0.0814641,275,55,45,2,0,4,1
2,1,19,70,1,2,NaN,NaN,p,0.2825032,276,55,45,2,0,4,1
2,1,19,50,1,1,NaN,NaN,o,0.1651813,277,49,51,2,1,3,3
2,1,19,60,1,2,NaN,NaN,o,0.3315751,278,52,48,2,0,3,2
2,1,19,70,1,2,1,0.3899625,o,0.2254895,279,49,51,2,1,3,3
2,1,19,60,1,1,NaN,NaN,o,0.4830647,280,49,51,2,1,3,3
2,1,19,50,1,2,NaN,NaN,o,0.2682437,281,55,45,2,0,3,1
2,1,19,70,1,2,NaN,NaN,o,0.1350568,282,51,49,2,0,3,3
2,1,19,70,1,2,1,0.3565244,o,0.2648208,283,45,55,2,1,3,1
2,1,19,70,1,1,1,0.7293442,o,0.2453725,284,52,48,2,0,3,2
2,1,19,50,1,2,NaN,NaN,o,0.300898,285,51,49,2,0,3,3
2,1,19,60,1,2,1,0.5734094,o,0.2460428,286,49,51,2,1,3,3
2,1,19,70,1,2,1,0.3682207,o,0.1795771,287,48,52,2,1,3,2
2,1,19,50,1,2,NaN,NaN,o,0.0817326,288,55,45,2,0,3,1
2,1,19,70,1,2,1,0.3389786,o,0.2474922,289,45,55,2,1,3,1
2,1,19,50,1,2,1,0.4039266,o,0.1973662,290,45,55,2,1,3,1
2,1,19,60,1,2,NaN,NaN,o,0.2174549,291,51,49,2,0,3,3
2,1,19,60,1,2,1,0.2033833,o,0.1627565,292,48,52,2,1,3,2
2,1,19,60,1,2,1,0.3415478,o,0.3135169,293,45,55,2,1,3,1
2,1,19,60,1,2,NaN,NaN,o,0.2671599,294,55,45,2,0,3,1
2,1,19,70,1,1,1,0.4936041,o,0.1788101,295,51,49,2,0,3,3
2,1,19,50,1,2,NaN,NaN,o,0.2483059,296,51,49,2,0,3,3
2,1,19,70,1,2,1,0.555808,o,0.1977542,297,49,51,2,1,3,3
2,1,19,70,1,2,NaN,NaN,o,0.1516225,298,52,48,2,0,3,2
2,1,19,50,1,2,NaN,NaN,o,0.3505643,299,52,48,2,0,3,2
2,1,19,70,1,2,1,0.2584888,o,0.5613963,301,45,55,2,1,3,1
2,1,19,70,1,1,1,0.3374334,o,0.2462553,302,51,49,2,0,3,3
2,1,19,60,1,2,1,0.300942,o,0.279471,303,45,55,2,1,3,1
2,1,19,50,1,2,1,0.3193309,o,0.2455084,304,45,55,2,1,3,1
2,1,19,70,1,2,NaN,NaN,o,0.6660957,305,52,48,2,0,3,2
2,1,19,60,1,1,1,0.224783,o,0.2478388,306,52,48,2,0,3,2
2,1,19,50,1,2,1,0.2298796,o,0.2469655,307,48,52,2,1,3,2
2,1,19,70,1,2,1,0.3208017,o,0.2292915,308,49,51,2,1,3,3
2,1,19,60,1,2,1,0.1349,o,0.1804293,309,49,51,2,1,3,3
2,1,19,60,1,2,1,0.3209517,o,0.2134208,310,48,52,2,1,3,2
2,1,19,50,1,1,NaN,NaN,o,0.2498573,311,45,55,2,1,3,1
2,1,19,50,1,2,NaN,NaN,p,0.4148815,312,55,45,2,0,4,1
2,1,19,60,1,2,NaN,NaN,o,0.2846914,313,52,48,2,0,3,2
2,1,19,60,1,2,NaN,NaN,o,0.0512179,314,55,45,2,0,3,1
2,1,19,70,1,1,1,0.3384685,o,0.1973728,315,51,49,2,0,3,3
2,1,19,50,1,2,1,0.5701663,o,0.1461532,316,49,51,2,1,3,3
2,1,19,70,1,2,1,0.3224462,o,0.2297124,317,49,51,2,1,3,3
2,1,19,50,1,2,NaN,NaN,o,0.0297751,318,51,49,2,0,3,3
2,1,19,60,1,1,1,0.3016209,o,0.2128717,319,51,49,2,0,3,3
2,1,19,50,1,2,1,0.3516079,o,0.162427,320,48,52,2,1,3,2
2,1,19,50,1,2,NaN,NaN,o,0.2349551,321,52,48,2,0,3,2
2,1,19,50,1,2,NaN,NaN,o,0.0686004,322,55,45,2,0,3,1
2,1,19,70,1,2,1,0.4140019,o,0.1813186,323,48,52,2,1,3,2
2,1,19,70,1,2,1,0.3053643,o,0.1634527,324,45,55,2,1,3,1
2,1,19,70,1,2,NaN,NaN,o,0.1165417,325,55,45,2,0,3,1
2,1,19,50,1,2,NaN,NaN,o,0.1665413,326,51,49,2,0,3,3
2,1,19,60,1,2,1,0.2681053,o,0.2464544,327,48,52,2,1,3,2
2,1,19,60,1,2,NaN,NaN,p,0.3156624,328,55,45,2,0,4,1
2,1,19,60,1,2,1,0.3370312,o,0.1803567,329,49,51,2,1,3,3
2,1,19,50,1,2,NaN,NaN,o,0.8178225,330,55,45,2,0,3,1
2,1,19,70,1,1,1,0.5764397,h,1.4300342,331,55,45,2,0,9,1
2,1,19,60,1,1,1,0.6705815,o,0.2963159,332,51,49,2,0,3,3
2,1,19,50,1,1,1,0.2677497,o,0.2448293,333,52,48,2,0,3,2
2,1,19,70,1,2,NaN,NaN,o,0.1174243,334,51,49,2,0,3,3
2,1,19,60,1,2,NaN,NaN,o,0.1316819,335,52,48,2,0,3,2
2,1,19,70,1,2,NaN,NaN,o,0.016728,336,52,48,2,0,3,2
2,1,19,70,1,2,1,0.3723515,o,0.2643854,337,49,51,2,1,3,3
2,1,19,50,1,2,NaN,NaN,o,0.0847523,338,51,49,2,0,3,3
2,1,19,50,1,2,1,0.6406056,o,0.2803069,339,48,52,2,1,3,2
2,1,19,60,1,2,NaN,NaN,o,0.1970634,340,55,45,2,0,3,1
2,1,19,60,1,2,1,0.5394889,o,0.2128814,341,49,51,2,1,3,3
2,1,19,70,1,2,NaN,NaN,o,1.1981649,342,52,48,2,0,3,2
2,1,19,50,1,2,NaN,NaN,p,0.3990374,343,51,49,2,0,4,3
2,1,19,50,1,2,1,0.4318404,o,0.2291094,344,48,52,2,1,3,2
2,1,19,70,1,1,NaN,NaN,o,0.1508475,345,48,52,2,1,3,2
2,1,19,60,1,2,1,0.4556451,o,0.1966216,346,48,52,2,1,3,2
2,1,19,60,1,1,1,0.3522928,h,1.4979835,347,55,45,2,0,9,1
2,1,19,60,1,2,1,0.738604,o,0.2969325,348,45,55,2,1,3,1
2,1,19,50,1,2,1,0.5896869,o,0.2472801,349,49,51,2,1,3,3
2,1,19,60,1,1,NaN,NaN,o,0.3166363,350,49,51,2,1,3,3
2,1,19,70,1,2,1,0.2090624,o,0.246541,351,49,51,2,1,3,3
2,1,19,50,1,2,NaN,NaN,o,0.1835653,352,55,45,2,0,3,1
2,1,19,60,1,2,1,0.5416355,o,0.2479858,353,48,52,2,1,3,2
2,1,19,50,1,2,1,0.3209829,o,0.1786871,354,45,55,2,1,3,1
2,1,19,60,1,2,NaN,NaN,o,0.0846727,355,52,48,2,0,3,2
2,1,19,70,1,2,1,0.1710668,o,0.2125285,356,45,55,2,1,3,1
2,1,19,70,1,2,NaN,NaN,o,0.1497674,357,51,49,2,0,3,3
2,1,19,50,1,2,1,0.2871819,o,0.2127616,358,45,55,2,1,3,1
2,1,19,70,1,2,1,0.4491368,o,0.445682,359,45,55,2,1,3,1
2,1,19,70,1,1,1,0.4357785,o,0.2300717,360,52,48,2,0,3,2
2,1,19,50,1,1,1,0.2218608,o,0.2813372,361,52,48,2,0,3,2
2,1,19,50,1,2,1,0.2393383,o,0.2458844,362,45,55,2,1,3,1
2,1,19,60,1,1,1,0.2055985,o,0.8311593,363,55,45,2,0,3,1
2,1,19,70,1,2,1,0.5673686,o,0.1959663,364,49,51,2,1,3,3
2,1,19,50,1,2,1,0.3979714,o,0.2631739,365,48,52,2,1,3,2
2,1,19,60,1,2,NaN,NaN,o,0.3499511,366,52,48,2,0,3,2
2,1,19,70,1,2,NaN,NaN,o,0.1831479,367,52,48,2,0,3,2
2,1,19,70,1,2,1,0.2023822,o,0.1956722,368,45,55,2,1,3,1
2,1,19,60,1,2,1,0.2855804,o,0.1790639,369,49,51,2,1,3,3
2,1,19,70,1,1,1,0.4223615,o,0.3810265,370,51,49,2,0,3,3
2,1,19,50,1,2,1,0.5564761,o,0.2135015,371,48,52,2,1,3,2
2,1,19,70,1,2,NaN,NaN,o,0.3167645,372,55,45,2,0,3,1
2,1,19,60,1,1,1,0.3700154,o,0.1627602,373,52,48,2,0,3,2
2,1,19,60,1,2,1,0.4190096,o,0.1964218,374,45,55,2,1,3,1
2,1,19,50,1,2,NaN,NaN,o,0.6835176,375,55,45,2,0,3,1
2,1,19,50,1,2,1,0.4122184,o,0.2128435,376,45,55,2,1,3,1
2,1,19,60,1,2,NaN,NaN,o,0.2183729,377,51,49,2,0,3,3
2,1,19,60,1,2,1,0.3720762,o,0.1800236,378,48,52,2,1,3,2
2,1,19,50,1,2,NaN,NaN,o,0.134508,379,55,45,2,0,3,1
2,1,19,70,1,1,1,0.6146718,o,0.1799994,380,51,49,2,0,3,3
2,1,19,50,1,2,NaN,NaN,o,0.049106,381,51,49,2,0,3,3
2,1,19,60,1,2,NaN,NaN,o,0.1502501,382,55,45,2,0,3,1
2,1,19,50,1,2,1,0.3039555,o,0.179446,383,49,51,2,1,3,3
2,1,19,70,1,2,1,0.4546686,o,0.1459157,384,45,55,2,1,3,1
2,1,19,70,1,2,1,0.4881711,o,0.2135427,385,49,51,2,1,3,3
2,1,19,50,1,1,1,0.3198255,o,0.163247,386,51,49,2,0,3,3
2,1,19,70,1,2,1,0.4233914,o,0.1801616,387,48,52,2,1,3,2
2,1,19,60,1,2,1,0.3850915,o,0.1949515,388,48,52,2,1,3,2
2,1,19,60,1,2,1,0.2036112,o,0.180077,389,49,51,2,1,3,3
3,1,NaN,60,0,2,NaN,NaN,o,0.7632441,0,49,51,1,0,3,3
3,1,NaN,50,0,1,NaN,NaN,o,0.7132928,1,52,48,1,1,3,2
3,1,NaN,70,0,1,1,0.7555681,i,1.3276254,2,48,52,1,0,2,2
3,1,NaN,50,0,2,NaN,NaN,o,1.3642905,3,45,55,1,0,3,1
3,1,NaN,70,0,2,NaN,NaN,i,1.4811684,4,45,55,1,0,2,1
3,1,NaN,70,0,2,NaN,NaN,o,1.2144055,5,49,51,1,0,3,3
3,1,NaN,60,0,1,NaN,NaN,o,0.9643078,7,55,45,1,1,3,1
3,1,NaN,70,0,2,NaN,NaN,o,1.3465333,8,49,51,1,0,3,3
3,1,NaN,60,0,2,NaN,NaN,i,0.9799168,9,49,51,1,0,2,3
3,1,NaN,50,0,1,NaN,NaN,o,0.8630736,10,51,49,1,1,3,3
3,1,NaN,60,0,2,1,0.6860984,o,1.3287924,11,52,48,1,1,3,2
3,1,NaN,60,0,2,NaN,NaN,p,1.1310695,12,48,52,1,0,4,2
3,1,NaN,70,0,2,NaN,NaN,p,1.4477396,13,45,55,1,0,4,1
3,1,NaN,50,0,2,NaN,NaN,p,0.4799919,14,49,51,1,0,4,3
3,1,NaN,60,0,1,NaN,NaN,p,0.580168,15,52,48,1,1,4,2
3,1,NaN,60,0,1,NaN,NaN,p,1.6464035,16,55,45,1,1,4,1
3,1,NaN,50,0,1,NaN,NaN,i,0.5962399,17,55,45,1,1,2,1
3,1,NaN,60,0,2,NaN,NaN,i,1.1801091,18,45,55,1,0,2,1
3,1,NaN,50,0,2,NaN,NaN,o,1.4636929,19,48,52,1,0,3,2
3,1,NaN,70,0,1,NaN,NaN,o,1.8649039,20,52,48,1,1,3,2
3,1,NaN,70,0,2,1,0.6851715,i,1.1453279,21,51,49,1,1,2,3
3,1,NaN,50,0,1,NaN,NaN,i,0.8138155,23,55,45,1,1,2,1
3,1,NaN,50,0,1,NaN,NaN,p,0.4300658,24,51,49,1,1,4,3
3,1,NaN,60,0,1,1,0.7354786,o,0.595282,25,48,52,1,0,3,2
3,1,NaN,70,0,2,1,0.8013644,i,0.7607504,26,55,45,1,1,2,1
3,1,NaN,70,0,2,1,0.5670121,p,0.4123844,27,52,48,1,1,4,2
3,1,NaN,50,0,2,NaN,NaN,o,0.5647959,28,48,52,1,0,3,2
3,1,NaN,50,0,2,NaN,NaN,p,0.4145033,29,45,55,1,0,4,1
3,1,NaN,60,0,1,1,0.7361788,o,1.5791532,31,48,52,1,0,3,2
3,1,NaN,70,0,2,NaN,NaN,p,0.8482896,32,49,51,1,0,4,3
3,1,NaN,70,0,1,NaN,NaN,i,1.4966087,33,51,49,1,1,2,3
3,1,NaN,50,0,2,1,0.7612569,i,0.6609233,34,55,45,1,1,2,1
3,1,NaN,50,0,1,NaN,NaN,p,1.3477437,35,51,49,1,1,4,3
3,1,NaN,60,0,2,NaN,NaN,i,0.8314905,36,48,52,1,0,2,2
3,1,NaN,60,0,1,NaN,NaN,p,0.6312527,37,55,45,1,1,4,1
3,1,NaN,70,0,2,NaN,NaN,p,0.7463025,38,49,51,1,0,4,3
3,1,NaN,70,0,2,1,0.8376757,o,1.1966999,39,52,48,1,1,3,2
3,1,NaN,70,0,1,NaN,NaN,i,1.6152905,40,51,49,1,1,2,3
3,1,NaN,70,0,2,NaN,NaN,p,0.4315932,41,45,55,1,0,4,1
3,1,NaN,60,0,1,1,0.6032638,p,0.6793668,42,49,51,1,0,4,3
3,1,NaN,60,0,1,NaN,NaN,p,1.9167658,43,52,48,1,1,4,2
3,1,NaN,50,0,2,1,0.9181134,o,0.4636081,44,55,45,1,1,3,1
3,1,NaN,70,0,2,1,0.6355537,o,1.4483908,45,55,45,1,1,3,1
3,1,NaN,50,0,2,NaN,NaN,i,1.2010567,46,45,55,1,0,2,1
3,1,NaN,60,0,1,NaN,NaN,p,0.6841702,48,55,45,1,1,4,1
3,1,NaN,50,0,2,NaN,NaN,p,0.2672802,49,49,51,1,0,4,3
3,1,NaN,70,0,1,NaN,NaN,p,0.0838672,50,52,48,1,1,4,2
3,1,NaN,50,0,1,NaN,NaN,p,0.8681887,51,52,48,1,1,4,2
3,1,NaN,50,0,2,1,0.4559502,o,0.9461563,52,51,49,1,1,3,3
3,1,NaN,50,0,1,1,0.6872913,o,0.7795967,53,48,52,1,0,3,2
3,1,NaN,60,0,1,NaN,NaN,i,1.7813223,54,52,48,1,1,2,2
3,1,NaN,50,0,1,1,0.8939248,u,1.9101583,55,45,55,1,0,1,1
3,1,NaN,60,0,1,NaN,NaN,i,0.131126,56,51,49,1,1,2,3
3,1,NaN,70,0,2,NaN,NaN,o,0.8138473,57,45,55,1,0,3,1
3,1,NaN,60,0,1,1,0.7030578,o,0.6784939,58,49,51,1,0,3,3
3,1,NaN,70,0,2,NaN,NaN,o,1.1014934,60,49,51,1,0,3,3
3,1,NaN,50,0,1,NaN,NaN,o,0.7853639,61,51,49,1,1,3,3
3,1,NaN,70,0,2,NaN,NaN,o,0.6507605,62,45,55,1,0,3,1
3,1,NaN,60,0,2,NaN,NaN,i,1.1164695,63,49,51,1,0,2,3
3,1,NaN,70,0,1,NaN,NaN,o,1.4667299,64,52,48,1,1,3,2
3,1,NaN,50,0,1,1,0.8743218,o,1.3460347,65,49,51,1,0,3,3
3,1,NaN,70,0,1,1,0.9198391,o,0.7952069,66,48,52,1,0,3,2
3,1,NaN,50,0,1,NaN,NaN,o,1.5484903,67,51,49,1,1,3,3
3,1,NaN,60,0,1,NaN,NaN,o,1.8315937,68,52,48,1,1,3,2
3,1,NaN,70,0,2,NaN,NaN,i,1.8518021,69,45,55,1,0,2,1
3,1,NaN,60,0,1,NaN,NaN,o,1.38457,70,52,48,1,1,3,2
3,1,NaN,50,0,1,1,0.9214207,i,0.8647394,71,48,52,1,0,2,2
3,1,NaN,70,0,2,NaN,NaN,o,1.5000941,73,49,51,1,0,3,3
3,1,NaN,50,0,1,NaN,NaN,o,0.6143099,74,52,48,1,1,3,2
3,1,NaN,50,0,1,NaN,NaN,i,0.0647407,75,55,45,1,1,2,1
3,1,NaN,60,0,2,NaN,NaN,o,0.4184329,76,45,55,1,0,3,1
3,1,NaN,60,0,1,1,0.4395025,i,0.7478959,77,48,52,1,0,2,2
3,1,NaN,60,0,1,NaN,NaN,o,0.4822921,78,55,45,1,1,3,1
3,1,NaN,70,0,2,1,0.7218926,i,0.780116,79,52,48,1,1,2,2
3,1,NaN,60,0,2,1,0.6534969,o,1.1300323,80,51,49,1,1,3,3
3,1,NaN,50,0,2,1,0.8036989,o,0.6803684,81,55,45,1,1,3,1
3,1,NaN,60,0,1,NaN,NaN,o,0.5006705,82,55,45,1,1,3,1
3,1,NaN,70,0,2,1,0.7894471,i,1.0150648,83,55,45,1,1,2,1
3,1,NaN,50,0,1,1,0.8592732,i,1.1982578,84,45,55,1,0,2,1
3,1,NaN,70,0,1,NaN,NaN,o,0.5019843,85,51,49,1,1,3,3
3,1,NaN,60,0,2,NaN,NaN,o,0.9179453,86,49,51,1,0,3,3
3,1,NaN,50,0,2,NaN,NaN,o,0.5646312,87,45,55,1,0,3,1
3,1,NaN,60,0,2,NaN,NaN,o,0.8315171,88,48,52,1,0,3,2
3,1,NaN,50,0,2,NaN,NaN,o,0.9148854,89,48,52,1,0,3,2
3,1,NaN,60,0,1,NaN,NaN,o,1.3003402,90,55,45,1,1,3,1
3,1,NaN,60,0,1,NaN,NaN,o,0.5516203,91,51,49,1,1,3,3
3,1,NaN,70,0,2,NaN,NaN,i,0.5848686,92,48,52,1,0,2,2
3,1,NaN,60,0,2,NaN,NaN,o,0.9518931,93,48,52,1,0,3,2
3,1,NaN,70,0,1,NaN,NaN,o,0.6978111,94,55,45,1,1,3,1
3,1,NaN,70,0,2,1,0.8039117,i,0.845752,95,52,48,1,1,2,2
3,1,NaN,70,0,2,NaN,NaN,o,0.6148279,96,45,55,1,0,3,1
3,1,NaN,60,0,2,NaN,NaN,o,0.6478863,97,45,55,1,0,3,1
3,1,NaN,50,0,1,NaN,NaN,o,1.4673488,98,51,49,1,1,3,3
3,1,NaN,60,0,2,1,0.8228644,i,1.0489301,99,52,48,1,1,2,2
3,1,NaN,50,0,2,NaN,NaN,i,1.7686671,100,49,51,1,0,2,3
3,1,NaN,70,0,1,1,0.8393361,o,0.7815451,101,49,51,1,0,3,3
3,1,NaN,70,0,1,NaN,NaN,i,1.6340567,102,52,48,1,1,2,2
3,1,NaN,50,0,2,NaN,NaN,o,0.8841275,103,45,55,1,0,3,1
3,1,NaN,60,0,2,NaN,NaN,i,0.8837185,104,49,51,1,0,2,3
3,1,NaN,70,0,1,NaN,NaN,o,1.3342634,105,51,49,1,1,3,3
3,1,NaN,50,0,1,NaN,NaN,o,1.5829544,106,52,48,1,1,3,2
3,1,NaN,50,0,1,1,0.9386653,i,1.3481553,107,48,52,1,0,2,2
3,1,NaN,50,0,2,NaN,NaN,i,1.6853397,108,48,52,1,0,2,2
3,1,NaN,60,0,1,NaN,NaN,o,0.734835,109,52,48,1,1,3,2
3,1,NaN,70,0,2,NaN,NaN,o,0.950479,110,45,55,1,0,3,1
3,1,NaN,60,0,2,1,0.4410909,o,1.1469717,111,55,45,1,1,3,1
3,1,NaN,60,0,2,NaN,NaN,o,0.6337817,112,49,51,1,0,3,3
3,1,NaN,50,0,1,NaN,NaN,o,1.1160259,113,51,49,1,1,3,3
3,1,NaN,70,0,1,NaN,NaN,o,1.0149331,114,51,49,1,1,3,3
3,1,NaN,70,0,2,NaN,NaN,o,0.7510936,115,49,51,1,0,3,3
3,1,NaN,60,0,2,NaN,NaN,o,1.2180399,116,48,52,1,0,3,2
3,1,NaN,50,0,2,NaN,NaN,o,0.5846401,117,45,55,1,0,3,1
3,1,NaN,50,0,2,1,0.5987191,o,1.1808565,118,55,45,1,1,3,1
3,1,NaN,50,0,2,1,0.6879146,p,1.1313469,119,55,45,1,1,4,1
3,1,NaN,60,0,2,NaN,NaN,p,0.9309405,120,45,55,1,0,4,1
3,1,NaN,50,0,1,NaN,NaN,p,0.7310285,121,52,48,1,1,4,2
3,1,NaN,70,0,2,NaN,NaN,o,0.4142248,122,45,55,1,0,3,1
3,1,NaN,60,0,1,NaN,NaN,i,0.9651473,123,55,45,1,1,2,1
3,1,NaN,50,0,2,NaN,NaN,o,0.8854664,124,45,55,1,0,3,1
3,1,NaN,70,0,1,NaN,NaN,o,1.3676363,125,52,48,1,1,3,2
3,1,NaN,70,0,2,NaN,NaN,o,0.6346529,126,45,55,1,0,3,1
3,1,NaN,60,0,1,1,0.5897435,i,0.8803833,127,48,52,1,0,2,2
3,1,NaN,60,0,2,NaN,NaN,i,0.5667706,128,49,51,1,0,2,3
3,1,NaN,50,0,2,NaN,NaN,i,0.7328254,129,49,51,1,0,2,3
3,1,NaN,70,0,1,NaN,NaN,i,1.881491,130,51,49,1,1,2,3
3,1,NaN,60,0,2,1,0.8201761,o,0.5809054,131,52,48,1,1,3,2
3,1,NaN,50,0,2,1,0.7206543,o,0.8811667,132,51,49,1,1,3,3
3,1,NaN,70,0,2,NaN,NaN,o,0.6678285,133,49,51,1,0,3,3
3,1,NaN,50,0,2,NaN,NaN,o,1.2011112,134,48,52,1,0,3,2
3,1,NaN,70,0,1,NaN,NaN,i,0.4679457,135,52,48,1,1,2,2
3,1,NaN,60,0,1,NaN,NaN,o,1.451535,136,52,48,1,1,3,2
3,1,NaN,50,0,2,NaN,NaN,o,1.2342783,137,45,55,1,0,3,1
3,1,NaN,70,0,2,NaN,NaN,o,1.1333254,138,49,51,1,0,3,3
3,1,NaN,50,0,1,NaN,NaN,i,1.4186692,139,55,45,1,1,2,1
3,1,NaN,60,0,2,NaN,NaN,o,1.4354423,140,48,52,1,0,3,2
3,1,NaN,60,0,1,NaN,NaN,o,1.4355818,141,51,49,1,1,3,3
3,1,NaN,60,0,1,NaN,NaN,o,1.4180207,142,55,45,1,1,3,1
3,1,NaN,70,0,1,NaN,NaN,o,0.8845418,143,51,49,1,1,3,3
3,1,NaN,50,0,1,NaN,NaN,i,0.800738,144,55,45,1,1,2,1
3,1,NaN,50,0,1,NaN,NaN,o,0.6342136,145,51,49,1,1,3,3
3,1,NaN,50,0,2,NaN,NaN,o,1.0838498,146,48,52,1,0,3,2
3,1,NaN,60,0,2,NaN,NaN,o,0.5353567,147,49,51,1,0,3,3
3,1,NaN,70,0,2,NaN,NaN,o,1.0017893,148,48,52,1,0,3,2
3,1,NaN,70,0,2,1,0.7334712,o,0.7320257,149,55,45,1,1,3,1
3,1,NaN,60,0,2,NaN,NaN,p,1.1335806,150,49,51,1,0,4,3
3,1,NaN,70,0,1,NaN,NaN,p,0.5672664,151,52,48,1,1,4,2
3,1,NaN,60,0,1,1,0.6076792,i,0.9313259,152,45,55,1,0,2,1
3,1,NaN,50,0,1,NaN,NaN,p,0.40064,153,51,49,1,1,4,3
3,1,NaN,50,0,2,1,0.3489332,o,0.5804002,154,55,45,1,1,3,1
3,1,NaN,50,0,1,1,0.8386925,p,0.9816865,155,48,52,1,0,4,2
3,1,NaN,70,0,2,1,0.6559018,p,0.7315741,156,51,49,1,1,4,3
3,1,NaN,50,0,1,NaN,NaN,p,0.4687382,157,51,49,1,1,4,3
3,1,NaN,60,0,2,NaN,NaN,p,0.6315121,158,48,52,1,0,4,2
3,1,NaN,70,0,2,NaN,NaN,p,1.5647952,159,48,52,1,0,4,2
3,1,NaN,70,0,2,1,0.6541879,o,0.6458547,160,52,48,1,1,3,2
3,1,NaN,60,0,1,1,0.8742404,p,1.1638115,161,49,51,1,0,4,3
3,1,NaN,50,0,1,NaN,NaN,p,0.5160008,162,52,48,1,1,4,2
3,1,NaN,60,0,1,NaN,NaN,p,0.0004109,163,55,45,1,1,4,1
3,1,NaN,60,0,2,1,0.8218614,o,0.5142153,164,52,48,1,1,3,2
3,1,NaN,60,0,1,NaN,NaN,o,0.8006434,165,55,45,1,1,3,1
3,1,NaN,60,0,2,NaN,NaN,p,0.6677771,166,48,52,1,0,4,2
3,1,NaN,60,0,2,1,0.3716042,o,0.6310229,167,52,48,1,1,3,2
3,1,NaN,60,0,2,1,0.5549582,o,0.6144545,168,51,49,1,1,3,3
3,1,NaN,70,0,1,NaN,NaN,p,0.4164091,169,51,49,1,1,4,3
3,1,NaN,70,0,2,1,0.537825,p,0.6803555,170,55,45,1,1,4,1
3,1,NaN,50,0,2,NaN,NaN,p,0.4316879,171,45,55,1,0,4,1
3,1,NaN,50,0,2,NaN,NaN,p,0.7983424,172,49,51,1,0,4,3
3,1,NaN,70,0,2,NaN,NaN,p,0.3677261,173,45,55,1,0,4,1
3,1,NaN,70,0,1,1,0.4777866,o,1.3145622,174,49,51,1,0,3,3
3,1,NaN,50,0,2,1,0.6045232,o,0.6794483,175,55,45,1,1,3,1
3,1,NaN,50,0,2,NaN,NaN,p,0.3664477,176,48,52,1,0,4,2
3,1,NaN,70,0,1,1,0.5851015,o,0.8629319,177,45,55,1,0,3,1
3,1,NaN,50,0,2,NaN,NaN,p,0.8994254,178,45,55,1,0,4,1
3,1,NaN,70,0,2,NaN,NaN,o,0.9347647,179,49,51,1,0,3,3
3,1,NaN,50,0,2,NaN,NaN,p,0.417371,180,48,52,1,0,4,2
3,1,NaN,60,0,2,1,0.5372694,o,0.8982884,181,55,45,1,1,3,1
3,1,NaN,70,0,2,NaN,NaN,p,0.5009356,182,45,55,1,0,4,1
3,1,NaN,50,0,1,NaN,NaN,p,0.4508539,183,51,49,1,1,4,3
3,1,NaN,60,0,2,1,0.4353597,o,0.4137432,184,52,48,1,1,3,2
3,1,NaN,60,0,1,NaN,NaN,o,0.4665553,185,52,48,1,1,3,2
3,1,NaN,50,0,2,1,0.5618349,o,1.1944778,186,55,45,1,1,3,1
3,1,NaN,60,0,2,NaN,NaN,p,0.3816451,187,49,51,1,0,4,3
3,1,NaN,70,0,1,1,0.554492,o,0.8781048,188,48,52,1,0,3,2
3,1,NaN,70,0,2,1,0.9477755,p,1.1311881,189,52,48,1,1,4,2
3,1,NaN,60,0,2,NaN,NaN,p,0.4508259,190,48,52,1,0,4,2
3,1,NaN,60,0,1,NaN,NaN,o,0.8508354,191,55,45,1,1,3,1
3,1,NaN,70,0,2,NaN,NaN,p,0.4340323,192,49,51,1,0,4,3
3,1,NaN,50,0,1,1,0.687543,o,0.5961493,193,48,52,1,0,3,2
3,1,NaN,60,0,2,NaN,NaN,p,0.3815306,194,49,51,1,0,4,3
3,1,NaN,50,0,2,1,0.3029459,o,0.4149831,195,55,45,1,1,3,1
3,1,NaN,70,0,2,1,0.5689048,p,0.7816637,196,51,49,1,1,4,3
3,1,NaN,60,0,2,NaN,NaN,p,0.5346832,197,45,55,1,0,4,1
3,1,NaN,50,0,2,1,0.9205762,o,0.6140909,198,52,48,1,1,3,2
3,1,NaN,50,0,2,NaN,NaN,p,0.364499,199,45,55,1,0,4,1
3,1,NaN,50,0,2,NaN,NaN,p,0.381375,200,49,51,1,0,4,3
3,1,NaN,70,0,2,1,0.5534522,o,0.560394,201,55,45,1,1,3,1
3,1,NaN,60,0,1,NaN,NaN,p,0.3839535,202,51,49,1,1,4,3
3,1,NaN,70,0,1,NaN,NaN,p,0.8348991,203,51,49,1,1,4,3
3,1,NaN,50,0,1,NaN,NaN,p,1.1354749,204,51,49,1,1,4,3
3,1,NaN,70,0,2,NaN,NaN,o,0.651942,205,49,51,1,0,3,3
3,1,NaN,70,0,2,NaN,NaN,o,1.7349107,206,45,55,1,0,3,1
3,1,NaN,50,0,2,NaN,NaN,p,0.4011835,207,45,55,1,0,4,1
3,1,NaN,60,0,2,NaN,NaN,p,0.8491961,208,48,52,1,0,4,2
3,1,NaN,70,0,2,1,0.4802408,p,1.0795937,209,52,48,1,1,4,2
3,1,NaN,70,0,1,NaN,NaN,p,0.6469077,210,51,49,1,1,4,3
3,1,NaN,60,0,2,NaN,NaN,p,0.3681157,211,49,51,1,0,4,3
3,1,NaN,60,0,2,1,0.5561834,o,0.7144543,212,52,48,1,1,3,2
3,1,NaN,70,0,1,NaN,NaN,p,0.3840367,213,52,48,1,1,4,2
3,1,NaN,50,0,2,NaN,NaN,p,0.4006104,214,45,55,1,0,4,1
3,1,NaN,50,0,1,1,0.7690013,o,0.4300547,215,48,52,1,0,3,2
3,1,NaN,70,0,2,1,0.5357069,o,0.4643654,216,52,48,1,1,3,2
3,1,NaN,60,0,1,NaN,NaN,p,0.3499463,217,51,49,1,1,4,3
3,1,NaN,70,0,1,NaN,NaN,o,1.0505203,218,51,49,1,1,3,3
3,1,NaN,50,0,1,1,0.7386968,o,0.5485671,219,48,52,1,0,3,2
3,1,NaN,60,0,1,1,0.5888989,o,0.4315865,220,49,51,1,0,3,3
3,1,NaN,70,0,1,NaN,NaN,p,0.5847952,221,55,45,1,1,4,1
3,1,NaN,50,0,2,1,0.6683186,p,0.7797826,222,52,48,1,1,4,2
3,1,NaN,70,0,2,NaN,NaN,p,0.6313748,223,48,52,1,0,4,2
3,1,NaN,60,0,2,1,0.6061158,o,0.3785933,224,55,45,1,1,3,1
3,1,NaN,70,0,2,NaN,NaN,p,0.3669195,225,49,51,1,0,4,3
3,1,NaN,60,0,2,NaN,NaN,p,0.3989905,226,48,52,1,0,4,2
3,1,NaN,60,0,2,NaN,NaN,p,0.3850546,227,48,52,1,0,4,2
3,1,NaN,60,0,2,1,0.637463,p,0.9140175,228,55,45,1,1,4,1
3,1,NaN,70,0,2,NaN,NaN,o,0.6677196,229,49,51,1,0,3,3
3,1,NaN,60,0,1,NaN,NaN,p,0.3330213,230,52,48,1,1,4,2
3,1,NaN,50,0,1,NaN,NaN,p,0.4512406,231,51,49,1,1,4,3
3,1,NaN,50,0,2,1,0.2546114,p,0.5143633,232,51,49,1,1,4,3
3,1,NaN,50,0,1,1,0.8843823,p,0.3636477,233,49,51,1,0,4,3
3,1,NaN,70,0,1,1,0.9223052,p,0.4137028,234,45,55,1,0,4,1
3,1,NaN,50,0,2,1,0.7543163,p,0.3462088,235,55,45,1,1,4,1
3,1,NaN,50,0,2,NaN,NaN,p,0.1482985,236,45,55,1,0,4,1
3,1,NaN,70,0,2,NaN,NaN,p,1.1680514,237,45,55,1,0,4,1
3,1,NaN,50,0,2,1,0.9372933,p,0.4798812,238,55,45,1,1,4,1
3,1,NaN,60,0,2,NaN,NaN,p,0.3840935,239,45,55,1,0,4,1
3,1,NaN,70,0,2,NaN,NaN,p,0.6645122,240,49,51,1,0,4,3
3,1,NaN,60,0,2,NaN,NaN,p,0.3806388,241,48,52,1,0,4,2
3,1,NaN,60,0,2,NaN,NaN,p,0.3172032,242,45,55,1,0,4,1
3,1,NaN,60,0,2,1,0.6387405,o,0.5645658,243,52,48,1,1,3,2
3,1,NaN,50,0,2,NaN,NaN,p,0.4510055,244,49,51,1,0,4,3
3,1,NaN,70,0,2,1,0.5187209,o,1.0149487,245,55,45,1,1,3,1
3,1,NaN,50,0,2,NaN,NaN,p,0.4174156,246,45,55,1,0,4,1
3,1,NaN,50,0,1,NaN,NaN,p,0.5511076,247,55,45,1,1,4,1
3,1,NaN,70,0,2,1,0.6715695,o,0.9477455,248,51,49,1,1,3,3
3,1,NaN,70,0,2,NaN,NaN,p,0.8003451,249,45,55,1,0,4,1
3,1,NaN,60,0,2,1,0.6207116,o,0.4627975,250,55,45,1,1,3,1
3,1,NaN,50,0,2,1,0.3544447,p,0.5128793,251,55,45,1,1,4,1
3,1,NaN,50,0,1,NaN,NaN,p,0.4020263,252,51,49,1,1,4,3
3,1,NaN,60,0,1,NaN,NaN,p,0.7177135,253,52,48,1,1,4,2
3,1,NaN,60,0,1,1,0.3878285,o,0.4132841,254,49,51,1,0,3,3
3,1,NaN,50,0,2,NaN,NaN,p,0.3664493,255,45,55,1,0,4,1
3,1,NaN,50,0,2,NaN,NaN,p,0.3838653,256,48,52,1,0,4,2
3,1,NaN,60,0,1,NaN,NaN,o,1.1171613,257,55,45,1,1,3,1
3,1,NaN,70,0,1,1,0.2552587,p,0.5304112,258,45,55,1,0,4,1
3,1,NaN,60,0,2,NaN,NaN,p,0.3513233,259,49,51,1,0,4,3
3,1,NaN,50,0,2,1,0.7714293,o,0.514995,260,51,49,1,1,3,3
3,1,NaN,70,0,2,1,0.3207772,o,0.512949,261,51,49,1,1,3,3
3,1,NaN,70,0,2,1,0.4511484,o,0.6973912,262,52,48,1,1,3,2
3,1,NaN,50,0,1,NaN,NaN,p,0.9169765,263,52,48,1,1,4,2
3,1,NaN,70,0,1,1,0.2562538,o,0.4794305,264,48,52,1,0,3,2
3,1,NaN,70,0,2,1,0.4512768,o,0.3794746,265,52,48,1,1,3,2
3,1,NaN,60,0,2,1,0.30198,p,0.5301732,266,51,49,1,1,4,3
3,1,NaN,70,0,1,1,0.5547231,p,0.4478636,267,49,51,1,0,4,3
3,1,NaN,50,0,1,1,0.7212378,p,0.4482779,268,48,52,1,0,4,2
3,1,NaN,60,0,2,NaN,NaN,p,0.3357387,269,48,52,1,0,4,2
3,1,NaN,60,0,1,NaN,NaN,i,1.4673435,270,55,45,1,1,2,1
3,1,NaN,50,0,2,NaN,NaN,i,1.8375329,271,48,52,1,0,2,2
3,1,NaN,70,0,1,1,0.6374559,o,0.7976598,272,48,52,1,0,3,2
3,1,NaN,60,0,2,NaN,NaN,o,0.3672079,273,49,51,1,0,3,3
3,1,NaN,70,0,2,1,0.3041706,o,0.5134986,274,55,45,1,1,3,1
3,1,NaN,70,0,1,1,0.5210423,i,0.8628577,275,49,51,1,0,2,3
3,1,NaN,70,0,1,NaN,NaN,i,1.1812087,276,52,48,1,1,2,2
3,1,NaN,70,0,2,NaN,NaN,o,0.031317,277,45,55,1,0,3,1
3,1,NaN,70,0,2,NaN,NaN,o,0.4012216,278,49,51,1,0,3,3
3,1,NaN,60,0,1,NaN,NaN,o,0.6676594,279,51,49,1,1,3,3
